level_0,attitude.roll,attitude.pitch,attitude.yaw,gravity.x,gravity.y,gravity.z,gyro-x,gyro-y,gyro-z,accel-x,accel-y,accel-z,activity code,index,user,serial,csv,standard activity code
0,1.1067489,-1.2331679,2.3117537,0.28862166,0.939728,-0.14486279,-0.41801494,0.50054085,0.8212296,0.7680760749724055,7.867572828956679,2.9286569110486207,0,0,13,1,dws_1/sub_13.csv,4
1,1.2148068,-1.2211165,2.8354373,0.32301676,0.9404421,-0.11892901,0.32580554,2.5624392,0.90070856,4.42020865533523,9.669579252897297,0.06753464726976265,0,1,13,1,dws_1/sub_13.csv,4
2,1.2464207,-1.1808162,2.6572268,0.359083,0.92436755,-0.1217442,0.56471914,-0.009305298,0.23984793,5.0940615388862,-3.5712155266834857,1.0865327920796555,0,2,13,1,dws_1/sub_13.csv,4
3,1.1640754,-1.1203748,2.6294532,0.40100446,0.9005787,-0.17156452,2.0679815,0.8744432,1.9011586,4.244128270675558,2.3723457228789377,-0.4515137531763837,0,3,13,1,dws_1/sub_13.csv,4
4,1.0916551,-0.94141495,2.481247,0.5212246,0.8084982,-0.27252185,2.093187,-0.4842232,2.716615,1.2772218404386817,8.98326137198898,-0.47945108196065156,0,4,13,1,dws_1/sub_13.csv,4
5,1.0570693,-0.8664504,2.483112,0.56476605,0.76167667,-0.31690684,0.29795188,0.53747654,-0.15205133,0.2660991984337583,0.7288043420528244,0.6047016484613041,0,5,13,1,dws_1/sub_13.csv,4
6,1.0845195,-0.9216914,2.4399133,0.53400177,0.7971576,-0.28388166,-0.7617939,0.65265214,-1.8094372,-0.726001443940494,-4.697140862232724,-0.5495866014013115,0,6,13,1,dws_1/sub_13.csv,4
7,1.0784155,-1.0714645,2.4559817,0.42208016,0.8773416,-0.22508447,-1.824587,-0.7925433,-3.0060217,1.9081393453484117,-2.5108755022064426,-1.1609406014520887,0,7,13,1,dws_1/sub_13.csv,4
8,1.0202497,-1.2081178,2.472033,0.30239427,0.93541765,-0.18650073,-0.9779271,-2.2170389,-1.4886984,0.6707408571792939,-5.926972669142226,-0.7285445817222223,0,8,13,1,dws_1/sub_13.csv,4
9,0.8924801,-1.2671509,2.4526863,0.23288247,0.953917,-0.18699303,-0.52460116,-1.5532092,-0.91954184,0.03453910429381075,-12.58325113491023,3.1692426629974766,0,9,13,1,dws_1/sub_13.csv,4
10,0.9095212,-1.3073691,2.5178308,0.20514092,0.9657702,-0.15997136,-0.8882618,-0.8624443,0.28665963,-2.6286702847985626,-8.368863152082946,-1.1026181619292168,0,10,13,1,dws_1/sub_13.csv,4
11,1.078439,-1.2824491,2.7048545,0.25037184,0.9584223,-0.13507032,-0.1356759,1.0554036,1.3103014,-2.0070121851574005,9.467351609397861,1.2934539707243773,0,11,13,1,dws_1/sub_13.csv,4
12,1.2215421,-1.2191299,2.7350307,0.32374507,0.9391857,-0.11700872,0.51542324,2.1927004,0.99964416,5.70324573377222,10.059776279447476,3.6910989821121087,0,12,13,1,dws_1/sub_13.csv,4
13,1.2475317,-1.2059817,2.7273998,0.33770075,0.9335845,-0.114427015,-0.104683034,0.106016934,-0.2862468,1.0743770101010195,-2.9029111197788198,3.327185464481104,0,13,13,1,dws_1/sub_13.csv,4
14,1.2587739,-1.1639253,2.6664462,0.3776659,0.9188974,-0.12002643,1.7116269,2.0064967,2.1100025,5.893397886471383,4.766051663815335,-2.1373857299072467,0,14,13,1,dws_1/sub_13.csv,4
15,1.1711954,-0.9692556,2.5437007,0.5201945,0.8243562,-0.22148302,2.3047683,-0.9887533,3.1927586,0.9399080952629116,8.707739008131151,-2.6730090917996994,0,15,13,1,dws_1/sub_13.csv,4
16,1.131973,-0.88593256,2.51478,0.57300204,0.774264,-0.26788536,-0.01190374,0.8342502,-0.149842,-1.5925170837098046,4.568021803284609,-1.3514627812073128,0,16,13,1,dws_1/sub_13.csv,4
17,1.2040008,-0.9418377,2.5281901,0.5493726,0.8090256,-0.21171522,-0.8324293,0.8384869,-1.4623669,0.21782798272213472,-6.385291184795345,-1.1491823408659319,0,17,13,1,dws_1/sub_13.csv,4
18,1.2078403,-1.0701632,2.5373755,0.44830793,0.8768226,-0.1697106,-1.1414095,-0.76111984,-3.0275247,-2.077415591414819,-7.504405500224821,-1.1077561611309354,0,18,13,1,dws_1/sub_13.csv,4
19,1.1373445,-1.2128606,2.553173,0.31835836,0.9370362,-0.14772964,-1.0490352,-2.3503509,-1.7853743,0.2688281086988344,-0.1272547564963469,-2.1152391218577837,0,19,13,1,dws_1/sub_13.csv,4
20,1.0233347,-1.2733012,2.5340357,0.24988261,0.95579,-0.15186223,-0.021896496,-1.1200491,-0.9661294,-1.087963437790246,-9.18473190566246,2.0217758992290227,0,20,13,1,dws_1/sub_13.csv,4
21,0.9591185,-1.3053135,2.503052,0.21498133,0.9651349,-0.1514686,-0.6212667,-0.7718692,0.023577206,0.9528150955287747,-14.389017034014088,1.7331502229812565,0,21,13,1,dws_1/sub_13.csv,4
22,1.1559786,-1.2826353,2.7278306,0.2600161,0.95867175,-0.11386816,-0.5820438,0.63453496,1.4701427,-3.1335504023885,7.49274691519033,2.013977364839132,0,22,13,1,dws_1/sub_13.csv,4
23,1.2805172,-1.223487,2.7519796,0.32611686,0.94032174,-0.0978217,0.74322844,2.4831872,0.85319966,0.22850268659971995,10.751747723687703,0.9084963114587149,0,23,13,1,dws_1/sub_13.csv,4
24,1.322965,-1.1806185,2.7042334,0.3687096,0.924932,-0.09299643,0.49125504,1.3367791,0.860845,2.3478463168737034,-1.5173715611731304,1.9062393395592963,0,24,13,1,dws_1/sub_13.csv,4
25,1.2974242,-1.0781597,2.6018004,0.4551167,0.8808112,-0.12816323,2.2289047,1.0082836,2.5543683,4.8651302098365825,7.7282648816400785,-1.383494948654084,0,25,13,1,dws_1/sub_13.csv,4
26,1.1978431,-0.9252863,2.4926672,0.56087965,0.79922396,-0.21865132,1.3154026,-0.75801814,1.9420929,-2.0943648970590365,9.413591849826602,-1.206330255535276,0,26,13,1,dws_1/sub_13.csv,4
27,1.2030524,-0.8969798,2.4823804,0.58153087,0.78094995,-0.22463986,-0.107928574,1.2821354,-0.6208119,-2.3602931273322305,-2.0808482516032205,1.0846706739085659,0,27,13,1,dws_1/sub_13.csv,4
28,1.2467766,-0.97323203,2.464836,0.5339789,0.8272265,-0.17910965,-0.5638919,0.42316166,-2.2091138,-0.47799809898440465,-1.8637849271245661,-1.3147135644961647,0,28,13,1,dws_1/sub_13.csv,4
29,1.2076936,-1.1148133,2.4527192,0.41111034,0.8973854,-0.15621768,-0.8433587,-1.081816,-2.6909082,-0.5574672759997124,-2.6629551559175413,-2.3283745170560937,0,29,13,1,dws_1/sub_13.csv,4
30,1.1149892,-1.2118435,2.424819,0.31595385,0.93658227,-0.15484019,-0.37984747,-1.5209781,-1.2979956,-1.1894415599376644,-7.077547043188645,-0.08404170045005692,0,30,13,1,dws_1/sub_13.csv,4
31,1.0346296,-1.2748764,2.4146943,0.24997784,0.95633876,-0.14887518,-0.7093448,-1.2341071,-0.9484476,-0.3641579288784543,-11.365436688631283,3.009616761683787,0,31,13,1,dws_1/sub_13.csv,4
32,1.0852946,-1.2942082,2.5254436,0.24236804,0.96203846,-0.12718835,-0.7546431,-0.9255754,0.78449255,-4.6954025167766655,-9.282883163932695,0.2723524796394625,0,32,13,1,dws_1/sub_13.csv,4
33,1.2947265,-1.2636079,2.7205286,0.2899074,0.95315105,-0.08313984,-0.5989421,1.9939494,0.8633482,-2.01466417334432,14.919386213871,1.737218522997514,0,33,13,1,dws_1/sub_13.csv,4
34,1.3860697,-1.2332824,2.7159057,0.32605276,0.94367045,-0.060086988,0.44252867,0.5436175,0.33940455,4.022969088529855,4.069724089132899,0.8103055971297549,0,34,13,1,dws_1/sub_13.csv,4
35,1.3669398,-1.2442476,2.7388856,0.31328204,0.94707626,-0.06621292,-0.6526948,-0.47026932,-0.3169936,2.040778682401334,-2.3686601839933683,4.017077759300828,0,35,13,1,dws_1/sub_13.csv,4
36,1.4140213,-1.1838634,2.709353,0.37341756,0.9256725,-0.058375664,1.8507205,2.0569298,2.760788,2.6585696363291818,3.8418481459296343,-3.244087086915724,0,36,13,1,dws_1/sub_13.csv,4
37,1.2201252,-0.9908686,2.4993086,0.51469356,0.8372448,-0.1878111,2.5084991,-1.6113794,2.8174243,-0.344077603671257,9.042511859022083,0.5292051575605209,0,37,13,1,dws_1/sub_13.csv,4
38,1.1649047,-0.90343875,2.466215,0.5681217,0.7848034,-0.24461867,0.12408613,0.833804,0.4758153,-5.385801930140546,2.2715964745451274,0.20704181026421592,0,38,13,1,dws_1/sub_13.csv,4
39,1.2191243,-0.9320998,2.4782207,0.56012744,0.80335045,-0.20558362,-0.6728529,0.0622977,-1.2839426,1.2867527513650028,1.3791435404513623,-2.711598886491865,0,39,13,1,dws_1/sub_13.csv,4
40,1.1807114,-1.0536506,2.4821014,0.45701128,0.86892253,-0.18750724,-1.0410888,-1.0264568,-2.7964182,-0.9683035684599166,-3.663674935166404,-0.5547222401370498,0,40,13,1,dws_1/sub_13.csv,4
41,1.1317838,-1.1933674,2.4900775,0.33372244,0.9298123,-0.15719427,-1.2391808,-1.5640218,-2.0761068,-3.2138209085079237,-6.532548035940843,0.9621784985249263,0,41,13,1,dws_1/sub_13.csv,4
42,1.0363841,-1.2869346,2.4936447,0.24100795,0.9598835,-0.14198601,-0.52178305,-1.7886791,-1.4400907,-2.140041832312096,-10.295628989396642,0.8670704905805963,0,42,13,1,dws_1/sub_13.csv,4
43,0.96861696,-1.3410777,2.4760008,0.187438,0.97378474,-0.12959383,-0.7042707,-0.6443961,-0.29082173,-1.0273567370328551,-12.406146950466347,1.9972259981781837,0,43,13,1,dws_1/sub_13.csv,4
44,1.1537173,-1.3235266,2.6807024,0.22402789,0.96958447,-0.09858598,-0.2811026,0.51081395,1.3848755,-4.075696355477366,2.0194867791442785,1.9930288630535837,0,44,13,1,dws_1/sub_13.csv,4
45,1.216384,-1.2775875,2.660818,0.27086377,0.95720404,-0.100711435,0.70535827,1.8094838,-0.05838295,0.31320247697853204,11.77568705506465,-0.958674781829407,0,45,13,1,dws_1/sub_13.csv,4
46,1.1944088,-1.2888705,2.5951862,0.25910926,0.9610337,-0.10183081,0.156639,0.22109386,0.19707069,10.510087822260616,-1.311293129777662,-1.319977597479904,0,46,13,1,dws_1/sub_13.csv,4
47,1.1353676,-1.1793431,2.5056808,0.34530532,0.9235334,-0.16142595,2.6441896,0.5040487,2.6827593,3.1947669331321626,4.41381244000531,-1.606914159923925,0,47,13,1,dws_1/sub_13.csv,4
48,0.9978652,-1.0098729,2.3770568,0.4476998,0.84747547,-0.28802502,1.8123645,-1.0608007,2.0699656,-1.2741296395073765,6.141467160192576,-0.4675893473504678,0,48,13,1,dws_1/sub_13.csv,4
49,1.0034922,-0.9198176,2.426148,0.5104038,0.7950647,-0.32586592,-0.10997454,-0.2792238,1.4386744,2.8047363139716017,2.458368005408596,-2.2307895966007325,0,49,13,1,dws_1/sub_13.csv,4
50,0.9890677,-0.9107628,2.4471602,0.51278496,0.79017025,-0.33664763,-0.13044627,-1.1176022,-0.70067906,-0.8009332176323316,-4.194921525146321,-1.267386349206847,0,50,13,1,dws_1/sub_13.csv,4
51,0.86847997,-0.9733281,2.4019108,0.42897767,0.82684684,-0.36393642,-0.567828,-2.1076868,-1.5664742,-0.9244871699420214,-6.424123883785244,-0.3795826344233926,0,51,13,1,dws_1/sub_13.csv,4
52,0.72015065,-1.0638176,2.3670707,0.3204805,0.8741165,-0.36459553,-1.2205873,-2.3338828,-1.3989676,-0.3640002163458119,-3.8129469526955337,-2.3365478009031606,0,52,13,1,dws_1/sub_13.csv,4
53,0.60340285,-1.1177741,2.3456929,0.2480394,0.8992472,-0.36087793,-0.15460166,-1.7656035,-0.25187436,3.115973239689494,-1.3800503325738167,-4.154167427446758,0,53,13,1,dws_1/sub_13.csv,4
54,0.5194607,-1.1087738,2.360939,0.22141185,0.8951394,-0.386553,0.032822058,-2.052503,0.3764329,1.0489241510089555,-3.8013675528314117,-5.1774091722597255,0,54,13,1,dws_1/sub_13.csv,4
55,0.4799916,-1.0964347,2.3929572,0.21109001,0.8895678,-0.40557474,0.2902875,-0.4829799,0.45976812,-2.9176633022503973,-3.0676454990415167,-3.628259655012819,0,55,13,1,dws_1/sub_13.csv,4
56,0.54179925,-1.0599666,2.439466,0.2516359,0.8723824,-0.4185589,0.35813624,0.6463164,0.8351676,-3.90233503575831,9.897836875144877,8.711526645281168,0,56,13,1,dws_1/sub_13.csv,4
57,0.5886136,-1.0667361,2.4815035,0.26907223,0.8755839,-0.4016502,-1.028146,-0.25677907,-0.3343045,-1.0139434947313553,6.803402939987808,2.1397805771671026,0,57,13,1,dws_1/sub_13.csv,4
58,0.6245018,-1.1629151,2.5090985,0.2305074,0.9180235,-0.32211438,-2.0495024,0.4052483,-1.1480662,0.5808987436517121,5.561144320016909,-0.9990386670563752,0,58,13,1,dws_1/sub_13.csv,4
59,0.62810206,-1.2689865,2.5295076,0.17601025,0.9546557,-0.24014202,-1.402996,-0.8523158,-1.0878426,-0.6651334002279059,3.2696226632046193,-3.771727046333848,0,59,13,1,dws_1/sub_13.csv,4
60,0.5623785,-1.347135,2.4899666,0.116276294,0.97542703,-0.188295,-1.2632838,0.29388514,-1.2010953,-2.90313040219566,-2.9848160453383623,1.078695804228301,0,60,13,1,dws_1/sub_13.csv,4
61,0.39793277,-1.4606853,2.2859535,0.046093702,0.9938032,-0.10029043,-1.8776519,0.0042654574,-1.72318,-2.9963706302225237,-6.0716977381486235,-1.7415685319922751,0,61,13,1,dws_1/sub_13.csv,4
62,-0.33207917,-1.5104184,1.5752745,-0.023100287,0.9981741,-0.057391778,0.15719195,1.2229154,-0.82615805,-1.8792985305500853,-5.2959345997117575,-1.6778156581770214,0,62,13,1,dws_1/sub_13.csv,4
63,-0.24049067,-1.4741919,1.5216683,-0.021779418,0.99549675,-0.09259954,0.7787304,0.8817396,0.38623855,5.03257922004306,-3.462414060346441,1.3488603543690745,0,63,13,1,dws_1/sub_13.csv,4
64,0.2532354,-1.4012222,2.1408474,0.042034328,0.98533845,-0.16463155,2.3249512,-0.17736888,2.37004,8.10007477079689,0.49234966717393547,1.125553239411541,0,64,13,1,dws_1/sub_13.csv,4
65,0.6170818,-1.2059798,2.3250399,0.20700192,0.93467677,-0.2895062,2.038038,-0.20973133,3.575729,-0.08917852252513372,12.039942009219509,1.741989021517087,0,65,13,1,dws_1/sub_13.csv,4
66,0.7209604,-1.0999831,2.8022969,0.298955,0.8907255,-0.34179628,0.08134207,-1.7477385,1.596506,-4.383515287386193,4.777152780694307,0.3580973243755634,0,66,13,1,dws_1/sub_13.csv,4
67,0.76960874,-1.0431256,2.460112,0.3506941,0.86435235,-0.36081183,-0.28674686,-1.2629287,2.2254994,4.174426282636163,1.7071312755960941,1.7178308232783455,0,67,13,1,dws_1/sub_13.csv,4
68,0.85083675,-0.9783762,3.5681133,0.41953504,0.8293745,-0.3689699,-1.1530191,-3.0488153,2.3946996,-0.49765847985561135,-1.7940494712336592,1.2050422909271596,0,68,13,1,dws_1/sub_13.csv,4
69,0.82061684,-0.9639753,0.02168572,0.41723981,0.8216162,-0.38849956,-1.6145993,-3.8997018,1.0472168,-1.276935398246676,-4.812028355919579,1.228899777255556,0,69,13,1,dws_1/sub_13.csv,4
70,0.7532376,-1.0004387,-3.5713425,0.3692693,0.8417238,-0.39410484,-1.4853052,-3.4027863,0.2883782,-1.6818334033302924,-3.0662771965930835,1.9886244251049903,0,70,13,1,dws_1/sub_13.csv,4
71,0.66699123,-1.0492681,-2.5951247,0.30772063,0.86712116,-0.39179647,-1.3746839,-3.37216,-0.052128173,-1.7115252390702027,-2.131232921868521,0.33713719680818777,0,71,13,1,dws_1/sub_13.csv,4
72,0.56624496,-1.1095786,-3.0028386,0.2389254,0.8955158,-0.3756975,-1.2313818,-2.7532353,-0.19044599,1.6098756112639596,-2.1955047781539205,-0.3022097954414367,0,72,13,1,dws_1/sub_13.csv,4
73,0.5491165,-1.1489912,-2.637125,0.21270391,0.91246206,-0.3497151,-0.84997255,-0.7475411,0.40764314,5.444153428473702,-1.1693717804801138,1.2559379115042293,0,73,13,1,dws_1/sub_13.csv,4
74,0.6410559,-1.1734028,-2.696262,0.23209816,0.9219263,-0.31034034,-1.2482816,-0.98139596,0.6229524,7.109578380593808,-1.4475554323328372,-1.057039769775516,0,74,13,1,dws_1/sub_13.csv,4
75,0.7082068,-1.2156659,-2.3940477,0.22490439,0.9378996,-0.2645045,-1.3256767,-2.2615707,0.3553896,-2.637434269937578,11.75264152885012,-1.5559733697684377,0,75,13,1,dws_1/sub_13.csv,4
76,0.66265625,-1.2178867,-2.4535007,0.21338218,0.93778527,-0.2726168,0.86089325,-0.808107,-0.1919046,-6.790435768069511,-5.207604165575806,0.7601190376529813,0,76,13,1,dws_1/sub_13.csv,4
77,0.43667245,-1.212745,-2.5729132,0.14853293,0.93750083,-0.31703603,-0.17911068,-1.1055143,-1.8887011,-3.0717143990533127,0.43395382350652006,7.436968023677088,0,77,13,1,dws_1/sub_13.csv,4
78,0.17862594,-1.335292,-2.8364596,0.040384263,0.9716193,-0.23008235,-2.6654744,-2.5132966,-1.1147453,4.1524746623074,2.134089224025921,-3.3186995017619236,0,78,13,1,dws_1/sub_13.csv,4
79,-0.022647858,-1.4100376,-2.7810836,-0.0020200908,0.9875225,-0.15998651,-0.5107772,-2.5073957,0.10736072,-0.526629187144106,-3.3779065440479172,-0.9695954744694857,0,79,13,1,dws_1/sub_13.csv,4
80,-0.14422536,-1.4538244,-2.8766723,-0.01824689,0.9927995,-0.11562781,-1.5032645,-3.0654914,-0.2161605,-5.394951834642082,-0.36899312106321064,1.4972795056990889,0,80,13,1,dws_1/sub_13.csv,4
81,-1.0671662,-1.4960834,1.9037204,-0.068534255,0.99754417,-0.03534153,-1.2122822,-1.3201872,-1.1751187,-1.5814019892402034,-0.27610003974829683,-1.0598974130890917,0,81,13,1,dws_1/sub_13.csv,4
82,-1.75571,-1.4412382,2.1265779,-0.12277761,0.9917358,0.02565135,-1.2427729,-1.4430131,-0.9876741,-1.621873975205317,-0.892768089630309,1.1556731562793603,0,82,13,1,dws_1/sub_13.csv,4
83,-2.1301627,-1.3907039,1.7275077,-0.16285506,0.98339874,0.086504534,-0.62327105,-0.5888343,-0.68365777,1.1205001170696562,-1.0086961842977444,-0.2825374442766711,0,83,13,1,dws_1/sub_13.csv,4
84,-1.9222106,-1.3740957,1.7384481,-0.1680831,0.981505,0.08795686,0.3798933,-0.5320822,0.3860903,4.733220460207254,0.6491953442435071,2.8766872160624026,0,84,13,1,dws_1/sub_13.csv,4
85,-2.3924332,-1.4626104,1.910819,-0.102442235,0.9933136,0.061442122,0.9943051,-0.85967946,2.079065,1.7592080189098338,1.270370948567978,0.934910304400902,0,85,13,1,dws_1/sub_13.csv,4
86,0.12157357,-1.5264513,-0.35400558,0.031820655,0.999152,-0.009293795,1.6351125,-0.29699725,2.6944487,-0.9184878036326328,9.135510585968582,-0.24069498917326748,0,86,13,1,dws_1/sub_13.csv,4
87,1.2780819,-1.4241848,-1.5554861,0.12345058,0.98948866,-0.077803716,0.9336248,-0.99898183,1.2685227,-3.9445688542537454,4.8157252863172815,1.289145760730001,0,87,13,1,dws_1/sub_13.csv,4
88,0.90699244,-1.3511698,-1.168815,0.18911117,0.97573525,-0.109569505,0.3251791,-0.06787822,1.7842474,0.9240808444368895,-1.4029221130526859,-1.3442474202483687,0,88,13,1,dws_1/sub_13.csv,4
89,1.2707154,-1.2482088,-1.1725665,0.29332978,0.94863063,-0.118679896,-0.13420397,-1.3481851,2.334101,2.044903865633229,-1.3965926688725492,0.12091703462349175,0,89,13,1,dws_1/sub_13.csv,4
90,1.1304479,-1.1653183,-0.9456557,0.36577678,0.9188606,-0.14904569,-0.14389816,-2.6772141,1.3200853,-2.439137890670737,-5.241567182649799,0.9196390474951691,0,90,13,1,dws_1/sub_13.csv,4
91,1.126727,-1.1398238,-0.9696082,0.37047246,0.9084879,-0.19220981,-0.21427569,-2.559956,0.13699666,-2.0090386734186776,-2.2617021921626645,0.27618760502809275,0,91,13,1,dws_1/sub_13.csv,4
92,1.0270274,-1.1743692,-0.8778099,0.33476016,0.92268544,-0.19339108,-1.1924001,-0.90754557,-0.9923725,-0.9299888349413656,-4.742869541304232,-0.6077974730115397,0,92,13,1,dws_1/sub_13.csv,4
93,1.0829577,-1.275067,-0.8582641,0.25565422,0.95656896,-0.13920629,-0.83542895,-0.5992398,-1.5667387,3.9797733132531055,2.4457601916013094,-4.760151417170962,0,93,13,1,dws_1/sub_13.csv,4
94,1.0040804,-1.2723331,-0.85087216,0.24951059,0.9554395,-0.15725622,0.4195726,-0.8659878,1.4325799,8.318690736765992,-2.2312974240111862,-1.4958985401415859,0,94,13,1,dws_1/sub_13.csv,4
95,1.1859181,-1.2192265,-0.6813508,0.317623,0.9391552,-0.13080034,-1.2567719,0.47583035,0.6812484,-2.988446529629367,3.5244820686654323,-0.12025090966556004,0,95,13,1,dws_1/sub_13.csv,4
96,1.2533023,-1.2459376,-0.5908823,0.30369246,0.947553,-0.09943368,0.110356584,-0.6215623,-0.7279257,-4.928560378776281,6.717837413296125,-5.322025305458893,0,96,13,1,dws_1/sub_13.csv,4
97,1.0770054,-1.2750764,-0.73759043,0.25681394,0.9566763,-0.13801338,0.3071177,-0.90458524,-1.078086,-1.0680177653028606,-3.900474315022589,4.612430626542426,0,97,13,1,dws_1/sub_13.csv,4
98,1.0704619,-1.3417263,-0.67467105,0.19874771,0.9738783,-0.10903748,-1.7301092,-1.4410423,-0.7445612,-0.24270803817212352,1.934631377002206,1.4328002049273458,0,98,13,1,dws_1/sub_13.csv,4
99,1.3915405,-1.3886682,-0.3117746,0.17837545,0.98345786,-0.03227043,-1.3177373,-0.1731101,-0.18872645,0.3010192293575288,-1.581389968207288,-2.4972556865530104,0,99,13,1,dws_1/sub_13.csv,4
100,1.5864186,-1.4047844,-0.09828055,0.16499914,0.9862381,0.002443269,-0.48430645,-0.39095092,-0.3549814,-2.205872102399691,-1.5335579633175098,-0.14176353048484241,0,100,13,1,dws_1/sub_13.csv,4
101,1.7050737,-1.4168054,0.009717941,0.15223677,0.98825294,0.021062434,-0.12107381,0.8004619,-0.046531,0.3090433487810762,-4.970940686708418,-1.7076518083409706,0,101,13,1,dws_1/sub_13.csv,4
102,1.65317,-1.4039564,-0.07023418,0.1652568,0.98600566,0.013069198,0.37260205,-0.00659433,0.41696504,0.05832625275340675,-4.051336741538967,-2.2818669092834396,0,102,13,1,dws_1/sub_13.csv,4
103,1.6185828,-1.3930396,-0.09572804,0.17671956,0.98440623,0.009004742,-0.19447747,0.04652202,0.045072276,-1.7659012430248229,-4.329601804466002,1.8704015945670527,0,103,13,1,dws_1/sub_13.csv,4
104,1.6785711,-1.3953459,-0.054899693,0.17329495,0.9843827,0.01794374,0.03280036,0.4127517,-0.13076535,0.8264951548416355,1.8272253595591754,-0.148859909029322,0,104,13,1,dws_1/sub_13.csv,4
105,1.6294549,-1.3921022,-0.12471211,0.17786017,0.9846005,0.011940286,0.47409052,0.6448225,0.6599583,1.2503125291273907,0.10379074672680211,3.5785704706650368,0,105,13,1,dws_1/sub_13.csv,4
106,1.4280887,-1.285121,-0.37679124,0.2778809,0.9586146,-0.042232774,1.9017278,0.5266645,3.0211291,6.22813704850771,12.6164711434395,-3.2661487617968348,0,106,13,1,dws_1/sub_13.csv,4
107,1.2532285,-1.1429588,-0.5153191,0.3951255,0.91076773,-0.12831765,0.78651077,-1.6927947,1.6828058,0.7214826204747279,5.3194204525271775,-0.955068210666274,0,107,13,1,dws_1/sub_13.csv,4
108,1.2318311,-1.1129841,-0.49014223,0.41653293,0.8962304,-0.14672217,-0.42637885,0.18653646,0.05594256,-4.412798954028965,-9.31519056224956,2.477214238605944,0,108,13,1,dws_1/sub_13.csv,4
109,1.3212982,-1.1571412,-0.41679955,0.38931128,0.9163897,-0.10094153,-1.0369085,-0.0017717183,-1.5880579,-0.2738820992254567,0.3109701966709123,-2.747415523650533,0,109,13,1,dws_1/sub_13.csv,4
110,1.3032489,-1.2957381,-0.3817023,0.262485,0.96185124,-0.070100024,-0.99188155,-1.5471419,-2.8353777,0.9071101310479323,-0.8592626239892914,0.6789230125941272,0,110,13,1,dws_1/sub_13.csv,4
111,1.444983,-1.3853271,-0.1684339,0.18232365,0.9831835,-0.023628816,-1.333032,-0.8841238,-0.46926904,-3.5870281897682004,0.3132499465271696,-2.2873475440394238,0,111,13,1,dws_1/sub_13.csv,4
112,1.5983256,-1.4057472,0.001481533,0.16435327,0.9861378,0.0050425828,0.024142042,-0.14214152,-0.71735966,-1.4480977981563738,-8.718023546153853,0.47717551070937586,0,112,13,1,dws_1/sub_13.csv,4
113,1.611442,-1.4318577,0.067205906,0.13822944,0.9906851,0.0052823722,-0.7199278,-1.6674569,0.16826424,1.381809661978297,-12.062585729589705,3.7678258197012355,0,113,13,1,dws_1/sub_13.csv,4
114,1.839978,-1.374865,0.3268677,0.18776701,0.9805677,0.05126521,-0.6955753,1.036437,1.2051704,-1.5114840602509112,12.361502733027935,1.255089176400669,0,114,13,1,dws_1/sub_13.csv,4
115,1.8314402,-1.3425119,0.22022879,0.21874893,0.9742736,0.05911456,0.8812677,1.6459894,0.4653084,4.673493548698262,5.523837214616103,-0.5046910309459287,0,115,13,1,dws_1/sub_13.csv,4
116,1.6300809,-1.3308747,-0.030026078,0.23669295,0.9711491,0.013079971,1.3210192,0.8777418,0.42912406,-1.6448249699499633,-0.6771172120442722,1.6933340659444573,0,116,13,1,dws_1/sub_13.csv,4
117,1.4093668,-1.2691427,-0.34812188,0.29392508,0.95498997,-0.046668768,2.0498593,1.7891431,2.0815954,5.514493447130432,5.031094076621814,-0.44903573830001575,0,117,13,1,dws_1/sub_13.csv,4
118,1.2562609,-1.114227,-0.51811934,0.41864654,0.89752054,-0.13708013,1.4551364,-0.9805268,2.4261775,-0.40464558756684826,7.284709502313191,-1.439300495365507,0,118,13,1,dws_1/sub_13.csv,4
119,1.2368404,-1.076054,-0.53689706,0.44842857,0.87991554,-0.15587346,-0.45222032,1.2136145,-0.7342573,-3.610462812005876,0.012305142817354335,0.6224055968746691,0,119,13,1,dws_1/sub_13.csv,4
120,1.3630129,-1.1772854,-0.4642973,0.37570664,0.9238762,-0.07806438,-1.5347627,0.3323231,-2.552977,2.0759109140513816,0.7696268956531985,-2.6398617713786514,0,120,13,1,dws_1/sub_13.csv,4
121,1.4999005,-1.3328274,-0.27250195,0.23465076,0.971558,-0.017928243,-1.4115965,-1.5090572,-2.6775005,0.19956648529248286,-4.276483825986994,-0.8425968064819354,0,121,13,1,dws_1/sub_13.csv,4
122,1.6886022,-1.4121397,0.016717672,0.15707289,0.9875165,0.019510478,-0.8985017,-2.299394,-0.9533247,-3.414319928634967,-8.727437531119437,-0.039318798196312524,0,122,13,1,dws_1/sub_13.csv,4
123,1.8536263,-1.4499171,0.2936505,0.11570436,0.99281174,0.033490434,-0.29817057,-1.7149229,-0.7339962,-0.4377273366397436,-12.169994406458454,-0.16811883770537037,0,123,13,1,dws_1/sub_13.csv,4
124,1.8336501,-1.4394959,0.3291062,0.126329,0.9910564,0.03308454,-0.07500824,-0.69754153,0.8998163,-2.4675706125138235,-1.771216115750832,2.9683439633394038,0,124,13,1,dws_1/sub_13.csv,4
125,1.7779676,-1.3835676,0.24540687,0.18220845,0.9830222,0.039819583,0.12518694,1.8658786,1.152809,-1.7367652542311065,11.978021183604184,1.2432299850308137,0,125,13,1,dws_1/sub_13.csv,4
126,1.7956165,-1.3403376,0.1465919,0.22243848,0.97289085,0.04881528,0.34288913,1.8087032,0.65099895,6.38296776540551,1.484408581613956,1.3483364793110961,0,126,13,1,dws_1/sub_13.csv,4
127,1.6559646,-1.3118159,-0.04795599,0.25583053,0.9676975,0.024405688,1.3832896,0.75934255,1.3491504,3.1902150794291244,1.268707059045011,0.8389300235167615,0,127,13,1,dws_1/sub_13.csv,4
128,1.3689659,-1.1581788,-0.36497474,0.39142638,0.91474277,-0.08279769,2.7170706,-0.7080368,3.683875,5.965965461406908,15.589073944183435,-3.3487749626201073,0,128,13,1,dws_1/sub_13.csv,4
129,1.1891829,-1.0206368,-0.489174,0.48639774,0.8532092,-0.19350502,0.7588277,-0.71783626,0.6867022,-7.130706104059636,0.01622041465697665,2.0653858741236886,0,129,13,1,dws_1/sub_13.csv,4
130,1.2580706,-1.069361,-0.47548056,0.4569108,0.87682277,-0.14791068,-1.2407784,2.0136774,-1.8562942,-2.338763036347468,-1.3868521720286688,-0.4794829655852957,0,130,13,1,dws_1/sub_13.csv,4
131,1.4278928,-1.20915,-0.34329677,0.35031325,0.9349989,-0.050932772,-1.6763526,-0.1905515,-2.7195957,2.5108469850278436,-1.3754899617506633,-2.357710687298329,0,131,13,1,dws_1/sub_13.csv,4
132,1.5159593,-1.3208449,-0.17442966,0.24686469,0.969265,-0.013009347,-0.9268,-2.2505693,-1.5315605,-1.7641329549609004,-4.666235887783942,-0.9029526939621456,0,132,13,1,dws_1/sub_13.csv,4
133,1.5833223,-1.379988,-0.002130866,0.18963699,0.9815924,0.0017309487,-0.60954905,-1.3914869,-0.8728891,1.448773365958024,-9.324122584305986,2.091092378000816,0,133,13,1,dws_1/sub_13.csv,4
134,1.6841637,-1.3817725,0.15476048,0.18668297,0.98228765,0.021852776,-0.7274286,-1.2234197,0.6200026,-4.7435965088205085,-9.368292632925662,1.5179048533757313,0,134,13,1,dws_1/sub_13.csv,4
135,1.7593231,-1.3363768,0.25769103,0.2279813,0.97262347,0.043133527,-0.16406283,0.8509265,0.764022,-2.7083650175787093,11.977967115791504,1.7121660683215507,0,135,13,1,dws_1/sub_13.csv,4
136,1.7766675,-1.311275,0.16123259,0.25141174,0.9665513,0.05251348,0.51918936,1.9758213,0.4000663,4.967249219252037,2.9981185880824133,0.8208639500162707,0,136,13,1,dws_1/sub_13.csv,4
137,1.7221663,-1.3099906,0.06856525,0.25448418,0.96619874,0.039312333,0.6753591,0.4384251,0.16421318,2.0785445985668716,-0.4237873528940835,0.6284336756285211,0,137,13,1,dws_1/sub_13.csv,4
138,1.4892104,-1.2362746,-0.24013305,0.32750076,0.94426167,-0.027842723,2.653715,1.1990933,2.7876592,4.356718593051158,4.548720011884028,-4.365989601254504,0,138,13,1,dws_1/sub_13.csv,4
139,1.2325603,-1.0714085,-0.4844463,0.45163542,0.8784455,-0.1578391,1.8938874,-1.6270827,1.9737667,-1.7990291694911682,3.9655325176483713,2.7849105674631596,0,139,13,1,dws_1/sub_13.csv,4
140,1.195186,-1.0562327,-0.5270376,0.45800453,0.8699058,-0.18110453,-0.6075013,1.6475437,-1.0466878,-4.52116572782648,1.640700559091415,-0.5757460911723011,0,140,13,1,dws_1/sub_13.csv,4
141,1.4081218,-1.1582853,-0.4144622,0.3954802,0.916624,-0.06484343,-1.8566567,1.7046304,-2.156239,2.030553170904151,-2.328802035689234,-2.5920621105369683,0,141,13,1,dws_1/sub_13.csv,4
142,1.6005098,-1.2839242,-0.19907105,0.28284442,0.95877504,0.008440286,-1.3773421,-1.6999016,-2.2756376,0.19966435353495282,-5.9485371175394,-2.3212557441337065,0,142,13,1,dws_1/sub_13.csv,4
143,1.7421649,-1.350003,0.05900991,0.2156727,0.975928,0.03746231,-0.8074749,-1.8528901,-0.81786114,0.6668453703370869,-5.074185646756617,1.3946797518828968,0,143,13,1,dws_1/sub_13.csv,4
144,1.7951593,-1.3704754,0.17459977,0.1941509,0.9799117,0.0440256,-0.35341436,-1.115705,-0.26425418,-2.6534252466175494,-12.423593041158687,3.171694990887566,0,144,13,1,dws_1/sub_13.csv,4
145,1.9160621,-1.3445332,0.35772705,0.21048483,0.9745031,0.07640572,-1.1826853,-0.67724,0.7351577,-3.34143886802415,1.66080341659519,1.4393471770904465,0,145,13,1,dws_1/sub_13.csv,4
146,1.9875233,-1.2937391,0.3861221,0.25067538,0.96188915,0.11029492,0.26144028,1.6970351,0.85715306,1.9891978078715176,10.901869952136503,-0.02000755044360427,0,146,13,1,dws_1/sub_13.csv,4
147,1.9385314,-1.2779272,0.29138994,0.2689851,0.95742685,0.10382685,0.09811483,-0.047937095,0.12201664,1.7611141513028261,0.8667421435438553,3.0762973342539808,0,147,13,1,dws_1/sub_13.csv,4
148,1.9229901,-1.2798762,0.25913262,0.26970515,0.9579807,0.099643946,0.7292955,1.088015,0.33402112,2.588260123524073,-0.10371250896028053,0.47550611431323936,0,148,13,1,dws_1/sub_13.csv,4
149,1.6368482,-1.2263213,-0.09868729,0.33606794,0.94112885,0.020593345,2.8206182,0.41156784,2.4261098,2.6743627593425834,4.623443875097932,-2.9004575887340414,0,149,13,1,dws_1/sub_13.csv,4
150,1.3264025,-1.0963265,-0.41093576,0.44453633,0.88980925,-0.10871219,1.9567674,-0.60222995,1.7524112,-2.816629306296663,5.811388671594067,-0.5766998266442505,0,150,13,1,dws_1/sub_13.csv,4
151,1.2859614,-1.0636624,-0.47047412,0.46506017,0.8738125,-0.13790001,-0.03747134,0.7640538,-0.49676108,-3.5538288708026133,1.1392969465888945,-0.9218048912334494,0,151,13,1,dws_1/sub_13.csv,4
152,1.3442813,-1.142465,-0.43560064,0.40544334,0.90996283,-0.09216254,-1.289389,0.055612028,-2.174063,0.9064412634990389,-3.540713977990635,-1.4756561331890095,0,152,13,1,dws_1/sub_13.csv,4
153,1.4899961,-1.2802054,-0.23970568,0.28511268,0.95787364,-0.024151556,-1.816892,-1.4278119,-2.392381,-0.6990208321000941,-3.5588180908395852,-3.2911757382710074,0,153,13,1,dws_1/sub_13.csv,4
154,1.5969777,-1.3727084,-0.028700233,0.19679755,0.9804728,0.006254986,-0.2881096,-2.1649432,-1.4659178,0.4471090397784724,-4.484876889845092,-0.9227750399198082,0,154,13,1,dws_1/sub_13.csv,4
155,1.4606509,-1.4171611,-0.07005334,0.15258004,0.98838013,-0.018493332,0.014967471,-1.5240508,-0.11798499,-1.015573796905957,-14.549229418313727,3.29032948873063,0,155,13,1,dws_1/sub_13.csv,4
156,1.6414562,-1.3705324,0.13917112,0.19734311,0.97973204,0.015802354,-1.070159,0.5230621,1.3260905,-4.367861359888529,4.539642502227964,3.790384728290376,0,156,13,1,dws_1/sub_13.csv,4
157,1.7075955,-1.3360112,0.15658486,0.23083964,0.9728276,0.031516507,0.8772096,0.7903539,0.19702698,4.062199498186311,8.56417520786271,-1.9457043517265709,0,157,13,1,dws_1/sub_13.csv,4
158,1.5489285,-1.3435785,-0.009384394,0.22501655,0.9739623,-0.0059622973,0.1307245,-0.07247895,-0.33443478,-0.5553346317268407,0.35139003729951784,3.3091914985964506,0,158,13,1,dws_1/sub_13.csv,4
159,1.6041136,-1.3420243,-0.0113765,0.2274131,0.9745111,0.009561837,0.6039522,2.0484734,0.8957424,3.880024575445759,-0.8758156402467397,-2.0179877540374775,0,159,13,1,dws_1/sub_13.csv,4
160,1.3444172,-1.2102625,-0.3295853,0.34203133,0.93492407,-0.08179167,2.7780044,-0.65680134,3.1360843,2.5884041609594433,6.31033015293008,-2.707555222581095,0,160,13,1,dws_1/sub_13.csv,4
161,1.1264678,-1.0786756,-0.47824347,0.42868173,0.88198483,-0.20071517,0.928682,-1.1443025,0.93690056,-5.734622296420279,-0.1791712132142719,1.958059455670681,0,161,13,1,dws_1/sub_13.csv,4
162,1.1762637,-1.0874741,-0.4583906,0.42730683,0.8851419,-0.18114427,-0.89728993,1.5478544,-0.83756185,-2.2216786400347863,-0.20598412527381724,-2.09129716350425,0,162,13,1,dws_1/sub_13.csv,4
163,1.2776799,-1.1977476,-0.3806591,0.3500967,0.93127185,-0.10236261,-1.6604489,-0.5264137,-2.5880508,2.6688878505340092,-1.1701515951820654,-4.2991131249044345,0,163,13,1,dws_1/sub_13.csv,4
164,1.4039767,-1.3373836,-0.18296504,0.22740296,0.97297716,-0.04116912,-1.594928,-1.4010099,-1.9390701,-1.657965666921576,-4.8691097296001224,-1.3731398043108296,0,164,13,1,dws_1/sub_13.csv,4
165,1.5238836,-1.4129817,0.003189683,0.15688841,0.9874739,-0.0042788237,-0.32116508,-1.2490835,-1.3220584,-1.7842688879370707,-7.301198976326692,-1.3891684845877181,0,165,13,1,dws_1/sub_13.csv,4
166,1.557097,-1.4767668,0.100506306,0.0940977,0.99577695,-0.004405223,-0.55634874,-1.0945891,-0.8629183,-1.953775343846893,-12.197602885946115,2.997922774193035,0,166,13,1,dws_1/sub_13.csv,4
167,2.0433202,-1.4595554,0.6152266,0.09724815,0.9936693,0.053418234,-1.2005023,-0.12691763,0.5705255,-0.8756524862099018,9.823010310645543,-1.1473542684253057,0,167,13,1,dws_1/sub_13.csv,4
168,1.9750547,-1.4501,0.5399442,0.110107616,0.992734,0.04458736,1.2996004,0.13962653,-0.12433032,4.555291031992576,7.69972816475682,-0.7774486977928659,0,168,13,1,dws_1/sub_13.csv,4
169,1.4015696,-1.4851818,-0.024042368,0.08901566,0.99647355,-0.013004065,0.2579289,-0.808951,-0.65251076,3.6114179898795356,-0.05228564850954245,0.9384287298903385,0,169,13,1,dws_1/sub_13.csv,4
170,2.1568263,-1.5131719,0.79226816,0.043785244,0.99823385,0.035332248,-1.3459115,-0.97344875,-0.7544294,2.828596126446958,-1.649578019515687,1.8639557042540416,0,170,13,1,dws_1/sub_13.csv,4
171,1.7384763,-1.4655395,0.38303602,0.09656319,0.9944197,0.0024760365,2.4832704,-0.011040151,2.7383592,0.9942616717844966,-1.0990051819175182,-4.285514263143923,0,171,13,1,dws_1/sub_13.csv,4
172,1.0490025,-1.2988863,-0.28598988,0.24731764,0.96340925,-0.11644615,0.9008525,-0.6479964,2.5760489,-2.40162369474881,14.20994648835026,3.3222463066144505,0,172,13,1,dws_1/sub_13.csv,4
173,1.3697941,-1.211382,0.06659222,0.33864713,0.93587613,-0.08468067,-1.2340933,-0.72348315,2.1512127,3.668706682926183,7.953778834835314,-1.0864295365605963,0,173,13,1,dws_1/sub_13.csv,4
174,1.3184292,-1.0957665,0.1583538,0.44697142,0.8896466,-0.102189235,-0.7678763,-4.020696,2.4303687,-1.8246838470176916,-2.475130875909703,-0.29834640151547376,0,174,13,1,dws_1/sub_13.csv,4
175,1.2722851,-1.0591866,0.33911896,0.46444643,0.87142575,-0.15252544,-1.0178553,-3.8497229,-0.052296184,-5.18608939290051,-5.15695194011301,0.857633264850716,0,175,13,1,dws_1/sub_13.csv,4
176,1.1463265,-1.1076685,0.37061858,0.4103824,0.8953701,-0.17855375,-1.3043536,-2.2154524,-1.1545419,-2.9617916050217157,-7.766204274118783,0.873811063525914,0,176,13,1,dws_1/sub_13.csv,4
177,1.201672,-1.2264382,0.5235381,0.3134458,0.940923,-0.12389277,-1.654303,-1.788602,-1.8453636,-0.9059837168021083,-2.2832663540957543,-4.112028308018133,0,177,13,1,dws_1/sub_13.csv,4
178,1.1173906,-1.2324418,0.5241057,0.29876953,0.9430153,-0.145322,0.87228614,-0.94185376,1.5398046,6.575787116033704,-1.712014245125967,-2.4156624928802697,0,178,13,1,dws_1/sub_13.csv,4
179,1.2270831,-1.1436334,0.607023,0.38924557,0.91048825,-0.13981524,-0.54024816,1.3401892,1.2306496,-1.0411705116271242,7.98887641498871,-0.635076956679346,0,179,13,1,dws_1/sub_13.csv,4
180,1.2425613,-1.1389112,0.6191897,0.3965844,0.9081526,-0.13404867,0.2543822,-0.98012054,-0.3597777,-1.2465981683627725,0.39759204979434226,0.8823033514751738,0,180,13,1,dws_1/sub_13.csv,4
181,1.2394758,-1.1883379,0.7082934,0.35233575,0.9275561,-0.122728296,-2.1131155,-2.2116842,-0.981272,2.664665612057449,-1.0668965449392724,5.792790180815036,0,181,13,1,dws_1/sub_13.csv,4
182,1.2876477,-1.2527246,0.9284005,0.3004057,0.9500119,-0.08620993,-1.1410551,-3.883538,-0.33386803,-1.2514522980354807,4.670004699892945,-1.7898903293869683,0,182,13,1,dws_1/sub_13.csv,4
183,1.2794125,-1.2808142,1.1057885,0.27373445,0.95811605,-0.0834547,-1.730773,-2.8648083,-0.5841057,-4.299649257842814,-4.273371056347902,1.8641897823585654,0,183,13,1,dws_1/sub_13.csv,4
184,1.5461885,-1.3672501,1.4849753,0.20236756,0.97949594,-0.0032611191,-2.0084848,-1.7130674,-1.7502047,0.7569032866999936,-0.3395860891377189,-0.29985702533686714,0,184,13,1,dws_1/sub_13.csv,4
185,1.9842074,-1.4227735,2.0313144,0.13492948,0.98919624,0.058649763,-1.5221022,-2.130463,-0.93914795,0.3518458370175099,-3.4845666137865376,2.852388183049543,0,185,13,1,dws_1/sub_13.csv,4
186,2.3374567,-1.3859196,2.4818537,0.13329004,0.98278457,0.12634297,-1.3953521,-1.7731969,0.21481133,-0.3752121705471439,-0.3816185727449625,-1.0456515950047154,0,186,13,1,dws_1/sub_13.csv,4
187,2.188358,-1.3682066,2.4391255,0.16272657,0.9798735,0.120542124,1.01716,-2.125827,0.5895902,2.20639598036346,-3.32108270935044,1.2304262052372827,0,187,13,1,dws_1/sub_13.csv,4
188,1.59973,-1.3108876,1.8831022,0.25681633,0.9656597,0.0028276294,2.7509546,-0.07200214,2.8127513,4.0752827176164015,3.229175409788854,2.6661625298977527,0,188,13,1,dws_1/sub_13.csv,4
189,1.3271549,-1.1697104,1.6364719,0.37940258,0.921454,-0.09088823,0.46270984,-1.652989,2.0278819,-2.0804203879502134,7.944874044398449,4.654265145406189,0,189,13,1,dws_1/sub_13.csv,4
190,1.2855709,-1.0964936,1.7136667,0.43779984,0.8889299,-0.13067572,-0.14150704,-2.5019314,1.6313732,2.5124266333112923,-0.7213425537722654,1.7471955955481013,0,190,13,1,dws_1/sub_13.csv,4
191,1.1934973,-1.005143,1.7856473,0.49872676,0.8447679,-0.1958996,-0.47906494,-3.6342938,2.0784903,0.4451231469091428,1.466397594505056,2.0519104724260804,0,191,13,1,dws_1/sub_13.csv,4
192,1.1278317,-0.94103086,1.9241166,0.531789,0.80787665,-0.2535327,-0.9503474,-3.239412,1.4677256,-2.7910231682558364,-1.2060314223672868,0.5705993363970998,0,192,13,1,dws_1/sub_13.csv,4
193,1.0671104,-0.923457,2.0123136,0.5283028,0.79781044,-0.2902781,-0.7823258,-2.1738575,0.1858363,-2.3964548047797556,-1.8420794618295064,-1.2322027252030703,0,193,13,1,dws_1/sub_13.csv,4
194,1.0385311,-0.9675121,2.063985,0.48898846,0.8235849,-0.2885235,-1.1741168,-0.7329273,-0.9192431,-1.8908865932574224,-5.09109292741965,-1.2019231176007164,0,194,13,1,dws_1/sub_13.csv,4
195,1.042356,-1.057056,2.1071181,0.42436236,0.8708563,-0.24690631,-1.1091617,-1.0058697,-1.4113686,3.561198985382371,-0.837557903187101,-3.7837722874016557,0,195,13,1,dws_1/sub_13.csv,4
196,0.976056,-1.0818543,2.1030827,0.38956153,0.8827267,-0.26409656,0.2996261,-0.9227294,0.65194994,8.394224702706271,-2.618031644853483,-1.1379218180182349,0,196,13,1,dws_1/sub_13.csv,4
197,1.1047454,-1.0493338,2.244367,0.44353464,0.8672736,-0.22310528,-2.1640294,0.54961455,1.0229772,-2.335861179875274,2.0559990017013243,2.8907470083084172,0,197,13,1,dws_1/sub_13.csv,4
198,1.2408606,-1.0871294,2.4293857,0.4416154,0.88520694,-0.15070572,-0.70001143,-1.7644851,-0.67829454,-4.260401720421476,9.338391636896615,-6.097310744912175,0,198,13,1,dws_1/sub_13.csv,4
199,1.0250773,-1.0995647,2.3410413,0.38785085,0.8911482,-0.23540576,0.6125461,-2.9187877,-0.4319191,-0.13501997226683107,-1.7657116260961925,6.195001931264434,0,199,13,1,dws_1/sub_13.csv,4
200,1.0042282,-1.1453815,2.4269733,0.34733388,0.91069853,-0.22184235,-2.1766381,-1.0031421,-0.38434097,-1.9576825514887188,3.4681732589684406,1.94361668237453,0,200,13,1,dws_1/sub_13.csv,4
201,1.1347597,-1.1997834,2.581611,0.32929596,0.93208784,-0.15291157,-0.74544084,-0.07506928,-0.26992223,-0.3450099488136332,-2.126151082676945,-1.8455133547494014,0,201,13,1,dws_1/sub_13.csv,4
202,1.1431872,-1.2225429,2.6125317,0.31008744,0.9398741,-0.14164683,-0.3851241,-0.5444282,-0.46984786,-2.6989778101212547,-3.554358166152089,0.4147076422397122,0,202,13,1,dws_1/sub_13.csv,4
203,1.137232,-1.2455357,2.6161432,0.29028195,0.9476871,-0.13415387,0.09642427,0.10882142,-0.15892941,0.1251979331935626,-5.144226667606073,-1.89970775271025,0,203,13,1,dws_1/sub_13.csv,4
204,1.1088967,-1.2300688,2.5832481,0.2989712,0.9424343,-0.14892456,0.31470084,-0.060416847,0.30928978,-1.750313961408636,-4.505967790293578,0.051132685679851256,0,204,13,1,dws_1/sub_13.csv,4
205,1.1041565,-1.2212778,2.573683,0.30592397,0.939618,-0.15412669,0.04961759,0.3138912,-0.034636922,-0.48788758016074313,-1.6172416747111504,1.0008597823642307,0,205,13,1,dws_1/sub_13.csv,4
206,1.1135229,-1.2156614,2.5530653,0.3119847,0.9375812,-0.15331948,0.43819517,0.7064601,0.3270311,0.7008996306228069,-2.2430062815758895,1.0860598297576765,0,206,13,1,dws_1/sub_13.csv,4
207,1.0813092,-1.1260012,2.4876113,0.37958446,0.9025978,-0.20263442,2.0094094,0.333936,2.3478177,3.8862102785050867,9.499750439127862,-2.4460156445858856,0,207,13,1,dws_1/sub_13.csv,4
208,1.0388087,-0.9538203,2.4428813,0.4988882,0.8158228,-0.2930863,1.6020017,-0.30277547,2.5723188,1.656648205773227,11.777718637210576,-3.9970037883277882,0,208,13,1,dws_1/sub_13.csv,4
209,1.0413507,-0.88329315,2.4595766,0.5474605,0.77266026,-0.32084996,-0.075617954,-0.016460389,0.23139548,-1.4837534349324377,-1.0802185131811788,-0.6704932403224027,0,209,13,1,dws_1/sub_13.csv,4
210,1.0436481,-0.92022187,2.4487858,0.52363914,0.7958908,-0.30435824,-0.44604665,0.31331262,-1.2937546,-1.5746749517323524,-5.575990626717004,0.3766862131425374,0,210,13,1,dws_1/sub_13.csv,4
211,1.0472053,-1.0238645,2.4409044,0.4502495,0.85399765,-0.26032844,-1.3063555,-0.033549905,-2.2227044,-0.6315855296729432,-0.7725640148902072,-2.995591886168547,0,211,13,1,dws_1/sub_13.csv,4
212,0.9915297,-1.1467674,2.4259653,0.3442954,0.9115708,-0.2250742,-0.85850954,-1.5946938,-1.7855282,0.48501628898998533,0.9624395555256132,-1.9240383427548273,0,212,13,1,dws_1/sub_13.csv,4
213,0.9260142,-1.1945506,2.4425426,0.29379785,0.9299618,-0.22073394,-0.6743805,-1.1001036,0.07915706,0.12388187217705979,-5.676389954533175,2.0088198547307137,0,213,13,1,dws_1/sub_13.csv,4
214,0.9892545,-1.2200506,2.5505805,0.28689122,0.9391378,-0.18895319,-1.046423,-1.1679566,-0.31555057,-3.9361695595383854,-12.249651008860738,-0.15486424461874734,0,214,13,1,dws_1/sub_13.csv,4
215,0.9876317,-1.2527653,2.6534355,0.2613069,0.9498912,-0.17192878,-0.7732641,-1.8607616,0.2790413,-2.357345492687484,-4.452744050679653,0.2702960495234003,0,215,13,1,dws_1/sub_13.csv,4
216,1.110796,-1.2457945,2.7728038,0.2856313,0.9475468,-0.14192197,-0.29447418,1.9305642,0.36724487,0.34990015938861885,11.577686019308395,4.001470620281639,0,216,13,1,dws_1/sub_13.csv,4
217,1.2143166,-1.2156556,2.7605467,0.32645026,0.93770015,-0.12104406,0.8572115,1.9619043,1.0262051,5.934324445557113,1.5546884282594389,-0.4012976050637264,0,217,13,1,dws_1/sub_13.csv,4
218,1.2131767,-1.1432304,2.689884,0.387706,0.909747,-0.14532968,0.9429423,0.8913765,0.7557059,0.38838907690006713,1.307983622093699,1.3322832812846377,0,218,13,1,dws_1/sub_13.csv,4
219,1.1487417,-1.0990107,2.5892491,0.41548198,0.89108074,-0.18580621,1.6343203,0.14292517,1.0001042,4.674117405793389,5.577610129632642,-2.406629951178239,0,219,13,1,dws_1/sub_13.csv,4
220,1.0384834,-0.95208776,2.4867077,0.4990908,0.81444454,-0.2944814,2.3389156,-0.7090235,2.3676314,-0.4751777398919233,11.824517700979456,-1.6110268391095943,0,220,13,1,dws_1/sub_13.csv,4
221,1.0144091,-0.8784683,2.449986,0.5418258,0.76959777,-0.33730394,0.08473565,1.0270809,-0.15296605,-3.9120711611535874,-0.5490355452571172,0.010414132071494712,0,221,13,1,dws_1/sub_13.csv,4
222,1.0956179,-0.93649673,2.4588296,0.52769816,0.8059453,-0.27072233,-1.1280087,1.3136109,-1.5754123,0.3936522887809692,-3.1958211753201704,-1.5501936125346554,0,222,13,1,dws_1/sub_13.csv,4
223,1.1567237,-1.0839102,2.5075078,0.42751014,0.883198,-0.18869565,-2.025023,-0.49523404,-2.8947804,-0.39138635953680323,-3.5321497277275804,-2.2325041055361234,0,223,13,1,dws_1/sub_13.csv,4
224,1.1289558,-1.2135952,2.577844,0.31664613,0.9373611,-0.14935176,-0.96480376,-2.7722955,-1.2758908,0.5530193199802613,-5.336345170876192,-1.3006949038542854,0,224,13,1,dws_1/sub_13.csv,4
225,1.0086604,-1.2583507,2.5813537,0.25961006,0.95129204,-0.1636721,-0.2725651,-1.7336979,-0.5931685,-1.3702984274745371,-11.303700344241323,3.3785799340178655,0,225,13,1,dws_1/sub_13.csv,4
226,0.9991554,-1.2718133,2.6324184,0.24826838,0.95577025,-0.15963201,-0.5778615,-0.97680974,0.5845451,-4.002418534340266,-7.174779485452626,1.2364981586770432,0,226,13,1,dws_1/sub_13.csv,4
227,1.1673716,-1.2420831,2.7996469,0.29627943,0.9464386,-0.12645929,-0.5194649,1.5571966,1.0579094,-1.6303885907280664,11.603331211828856,0.996738748825909,0,227,13,1,dws_1/sub_13.csv,4
228,1.2846992,-1.1982759,2.81843,0.3493504,0.9313559,-0.103011236,0.71762305,1.2416984,0.767578,7.368013738240901,2.5926744457743895,-1.6304670852006917,0,228,13,1,dws_1/sub_13.csv,4
229,1.2577636,-1.1594887,2.7664704,0.38027033,0.91677,-0.12287043,0.5420896,0.6127523,0.62776166,0.5893538490998543,-1.275883202147008,2.4373212707849854,0,229,13,1,dws_1/sub_13.csv,4
230,1.2207893,-1.0555172,2.6567383,0.46259785,0.86968184,-0.1695537,2.7877886,0.8792137,2.751904,4.529514321652218,5.1772940895108155,-3.214036374823427,0,230,13,1,dws_1/sub_13.csv,4
231,1.0785385,-0.8636224,2.5222092,0.57330275,0.76080334,-0.30643547,2.1917453,-1.1968362,2.1274445,-2.1886201956311773,11.086927286934655,-0.8526806955468035,0,231,13,1,dws_1/sub_13.csv,4
232,1.0609637,-0.831392,2.483242,0.58743215,0.7383433,-0.32905132,0.003068611,1.4349697,-0.9602145,-2.186003555831241,-1.7193896274702156,0.6566168153008626,0,232,13,1,dws_1/sub_13.csv,4
233,1.0997027,-0.9220954,2.4596834,0.5388013,0.7972772,-0.27443188,-1.2138698,0.16161117,-2.290468,-0.9344005701507762,-2.7973210663479895,-0.8774960806617492,0,233,13,1,dws_1/sub_13.csv,4
234,1.0857927,-1.0850717,2.5042477,0.41272,0.8840352,-0.21722911,-2.146077,-1.5793201,-2.7217948,-0.7586366932103176,-2.9118226303468013,-3.0613621308567645,0,234,13,1,dws_1/sub_13.csv,4
235,1.0564405,-1.2215427,2.5541177,0.29812205,0.9398047,-0.16864266,-1.1322643,-1.4002169,-1.7375989,1.8041410936372888,-7.537555720178999,0.6953158153950556,0,235,13,1,dws_1/sub_13.csv,4
236,0.9850497,-1.2738584,2.563634,0.24353485,0.9561872,-0.1616941,-0.29353452,-1.7793982,0.06537031,-0.5570606203250467,-14.193058602529929,2.4574426591985996,0,236,13,1,dws_1/sub_13.csv,4
237,1.0928997,-1.241927,2.7281842,0.2868423,0.94633675,-0.14817914,-0.8713578,0.28639653,1.4579215,-5.036163184814551,5.192336358832509,3.900179944855505,0,237,13,1,dws_1/sub_13.csv,4
238,1.3147894,-1.2013881,2.866814,0.34948087,0.93269736,-0.091956444,-0.08872834,2.32159,0.79367995,3.488386514773048,9.513078442186156,-0.708837705500707,0,238,13,1,dws_1/sub_13.csv,4
239,1.3265204,-1.1759943,2.8354042,0.3727136,0.92275643,-0.092730366,0.39360505,-0.2734579,0.11989999,5.000697682654191,-3.0041682726790837,5.431752598031213,0,239,13,1,dws_1/sub_13.csv,4
240,1.2653822,-1.152827,2.7478886,0.38772127,0.9143934,-0.122156665,1.528731,1.3703817,0.9067559,-0.2817121494422984,5.012674232316854,0.23039820398036215,0,240,13,1,dws_1/sub_13.csv,4
241,1.1738423,-1.0068715,2.5874586,0.49228454,0.84462476,-0.2064801,2.6204617,0.0222677,2.877344,3.251966797577038,11.651340761457506,-3.506382279595063,0,241,13,1,dws_1/sub_13.csv,4
242,1.0883019,-0.88408226,2.5106988,0.5620158,0.77375686,-0.2946005,1.187992,-0.11304033,0.5626921,-4.818648622021608,-0.5100697511555076,1.5115693425141743,0,242,13,1,dws_1/sub_13.csv,4
243,1.0919985,-0.89475214,2.4678597,0.5552598,0.77977026,-0.28752857,-0.3307351,0.95496285,-0.9607526,0.3643172496645354,0.5806948318991,-1.1653832013144594,0,243,13,1,dws_1/sub_13.csv,4
244,1.1132512,-0.99740297,2.4845374,0.4865784,0.840224,-0.24056545,-1.4932265,-0.58486533,-2.5411744,-0.5112999112396964,-2.585690404399472,-0.9684334556704624,0,244,13,1,dws_1/sub_13.csv,4
245,1.081044,-1.1520696,2.5071087,0.35890833,0.91358954,-0.1905078,-1.5921657,-1.2665478,-2.1130443,-0.8598701085194276,-1.934393672155533,0.05332897360128827,0,245,13,1,dws_1/sub_13.csv,4
246,1.0948235,-1.2278396,2.6036963,0.29888985,0.94170123,-0.15468688,-0.899754,-1.6529585,-0.5216744,-4.895915774351111,-5.2321631265069035,-0.6514236014295026,0,246,13,1,dws_1/sub_13.csv,4
247,1.0167161,-1.2666676,2.5703282,0.25452733,0.954206,-0.15688801,0.156835,-0.08656207,-0.9052641,0.5943530664616892,-11.883760860471977,1.9141843411043344,0,247,13,1,dws_1/sub_13.csv,4
248,1.035681,-1.2800366,2.5931945,0.24651904,0.95787317,-0.14650653,-0.8032055,-0.63060194,0.61945635,-1.0384293698252471,-11.129036913562611,0.4584877791841229,0,248,13,1,dws_1/sub_13.csv,4
249,1.2116696,-1.2459924,2.791955,0.29891986,0.94790876,-0.11208193,-0.2841891,0.9456048,1.3462132,-0.14768265540505165,12.900904695258683,-0.6631769947183074,0,249,13,1,dws_1/sub_13.csv,4
250,1.2895343,-1.18083,2.7489815,0.36488527,0.9247062,-0.10551447,1.1319693,2.1292596,0.7417581,1.8964506381047799,7.174667184484185,-1.074563286166627,0,250,13,1,dws_1/sub_13.csv,4
251,1.234992,-1.151686,2.6619182,0.38453835,0.9137499,-0.13407077,0.7575261,-0.13388373,0.4539482,5.269656115271492,-2.316657238851881,3.3179185370651902,0,251,13,1,dws_1/sub_13.csv,4
252,1.1672257,-1.0450166,2.5606918,0.46118176,0.8644416,-0.19704404,2.3531587,0.6168889,2.5987709,2.6974536375503257,8.789282847474642,-1.0898522194717986,0,252,13,1,dws_1/sub_13.csv,4
253,1.0900103,-0.89361954,2.485874,0.5557872,0.77981704,-0.2901144,1.3621262,-0.70508283,1.6132514,-3.449432989457341,7.967513511607122,-1.01069037519939,0,253,13,1,dws_1/sub_13.csv,4
254,1.0915067,-0.8662448,2.4658647,0.57477987,0.7616362,-0.29795772,-0.1079333,1.3364434,-0.5616345,-0.5984224341672629,1.3700676283004172,0.21026634416122733,0,254,13,1,dws_1/sub_13.csv,4
255,1.1545721,-0.9507734,2.4712641,0.5312728,0.8139403,-0.23597135,-1.2265687,0.41542342,-2.237279,-1.4882636199762793,-2.726163000542013,-0.9646913769394404,0,255,13,1,dws_1/sub_13.csv,4
256,1.1289802,-1.0929532,2.489308,0.4158703,0.8880501,-0.19562802,-1.3789252,-1.6290371,-2.3812287,-0.868180030165911,-3.7805364117705422,-1.0413850385987906,0,256,13,1,dws_1/sub_13.csv,4
257,1.0832943,-1.2155987,2.5450034,0.3070802,0.9374442,-0.1635399,-1.4526005,-1.8989522,-1.8124894,0.1930330649532051,-8.045738516400826,-0.048039898270026166,0,257,13,1,dws_1/sub_13.csv,4
258,1.0277648,-1.2918003,2.5594745,0.23570162,0.9614769,-0.14240514,-0.27438307,-0.9577663,-0.47772616,-0.005928634002493091,-14.424194039702767,2.4367032984640526,0,258,13,1,dws_1/sub_13.csv,4
259,1.1050539,-1.2679666,2.6682203,0.2664514,0.95441264,-0.1331079,-0.6255005,-0.085063815,1.3030288,-6.253702021896934,-2.4781822329359935,1.4272709053365185,0,259,13,1,dws_1/sub_13.csv,4
260,1.2406673,-1.2227502,2.7660694,0.3225608,0.9400398,-0.11152996,0.61066896,1.5742908,0.8490476,3.2798509349726723,15.148371260542618,-0.11376826775445936,0,260,13,1,dws_1/sub_13.csv,4
261,1.2208271,-1.1836001,2.6853833,0.35514644,0.92605555,-0.12843,0.17439745,0.28557345,0.196515,3.3705771499688764,1.2206854356514,2.2971306055714327,0,261,13,1,dws_1/sub_13.csv,4
262,1.3006656,-1.2090222,2.7700958,0.34061706,0.93528503,-0.09526297,-0.748414,0.41927978,-0.2662165,1.6748817495277966,0.5043376179253753,2.328186182725916,0,262,13,1,dws_1/sub_13.csv,4
263,1.291416,-1.139516,2.712243,0.40206808,0.9080688,-0.11506049,2.0960672,0.5579035,2.5619164,4.079324317967142,5.740528611203798,-3.233088538152699,0,263,13,1,dws_1/sub_13.csv,4
264,1.1243986,-0.96630156,2.5654883,0.5126909,0.8233747,-0.24511053,2.398542,-1.5343004,2.1748526,0.11669414553893445,7.62983303878473,0.08296524016601162,0,264,13,1,dws_1/sub_13.csv,4
265,1.03159,-0.8873064,2.4976368,0.54166394,0.77485305,-0.32460153,0.6071127,0.067211986,0.20771857,-6.032599411893978,-1.6622338435433344,-0.37781684728263426,0,265,13,1,dws_1/sub_13.csv,4
266,1.060302,-0.9144488,2.5031567,0.53268975,0.79266363,-0.29792058,-0.9244295,0.49324122,-1.0810264,0.49749706964352847,-0.3551894926221812,-2.52018816278117,0,266,13,1,dws_1/sub_13.csv,4
267,1.0569283,-1.0399296,2.506122,0.44069588,0.86202055,-0.2489831,-1.4637256,-0.8141888,-2.8852794,0.6104914271208729,-4.8686186309626756,-1.1296159141589062,0,267,13,1,dws_1/sub_13.csv,4
268,0.9998439,-1.1827552,2.534089,0.31845254,0.92592674,-0.20438078,-1.6391251,-2.1001,-1.3341527,-0.971964163166668,-1.3583177943313665,-0.3815275819404945,0,268,13,1,dws_1/sub_13.csv,4
269,0.9911039,-1.2263057,2.620074,0.28250656,0.94103295,-0.1851401,-0.30973315,-1.22748,-0.21822894,-5.713177726146114,-5.578082803914534,-0.530412815565925,0,269,13,1,dws_1/sub_13.csv,4
270,0.9009824,-1.2542278,2.549201,0.244151,0.9504695,-0.19291782,-0.09044415,-0.2008888,-0.90566754,-0.646498547125601,-12.604536305957042,1.1554131532664458,0,270,13,1,dws_1/sub_13.csv,4
271,0.9268073,-1.2885381,2.6344852,0.22250819,0.96030784,-0.16765626,-1.2938819,-1.8625107,0.37475398,-1.4894618532421005,-6.919026897184288,2.497773201270866,0,271,13,1,dws_1/sub_13.csv,4
272,1.0901009,-1.2800584,2.8374891,0.25448877,0.95809793,-0.13206741,-0.15998337,1.1521685,0.9097956,0.2152975830486521,11.008869821525204,-0.9982285007669083,0,272,13,1,dws_1/sub_13.csv,4
273,1.1309468,-1.2446557,2.8021398,0.28953704,0.94722235,-0.1368394,0.680645,0.32957217,-0.029757768,8.82444445724311,4.617734029108095,-3.336211268591128,0,273,13,1,dws_1/sub_13.csv,4
274,1.0042031,-1.2622072,2.73766,0.2563626,0.9530782,-0.16317306,0.067959875,-1.175125,-0.26910615,6.006559994264395,-1.6826452414182556,1.4601533185206854,0,274,13,1,dws_1/sub_13.csv,4
275,0.993065,-1.1937926,2.7054613,0.3082408,0.9291102,-0.20066926,1.6978937,0.6974485,2.0052798,-0.18420161276787667,4.756203379684823,-1.0526002572912487,0,275,13,1,dws_1/sub_13.csv,4
276,0.9285753,-1.0668937,2.688022,0.38687873,0.8763237,-0.28936404,0.8605935,-1.9786484,1.7735013,2.481780882936096,6.886693935412068,0.38416429537849994,0,276,13,1,dws_1/sub_13.csv,4
277,0.9428361,-1.0096844,2.7875261,0.4303001,0.84629816,-0.31267655,-0.6298604,-0.9858899,1.2589914,-0.9554970345335828,-0.9895601632614388,-1.153110721362704,0,277,13,1,dws_1/sub_13.csv,4
278,0.92007905,-1.0173986,2.8615005,0.41850927,0.85093796,-0.31795,-0.70861113,-2.3018167,-0.6049981,-2.4506122547266527,-3.272996008150498,-0.23399848151042413,0,278,13,1,dws_1/sub_13.csv,4
279,0.76060057,-1.0883952,2.808573,0.31925535,0.88590926,-0.33693016,-0.6108601,-2.5499568,-1.6714118,-3.8494511982284543,-4.989231435434711,0.44862241454776103,0,279,13,1,dws_1/sub_13.csv,4
280,0.5305487,-1.164847,2.7224612,0.19966877,0.918751,-0.34047693,-0.617265,-2.3342376,-1.5252861,-1.7642503906461837,-6.545807273114201,-2.7330222427359843,0,280,13,1,dws_1/sub_13.csv,4
281,0.3903334,-1.1930472,2.600612,0.14152765,0.92941606,-0.34040537,0.062429056,-0.7664372,0.031595275,-0.9516812744973225,-2.55880317372438,-3.833589160603994,0,281,13,1,dws_1/sub_13.csv,4
282,0.43277252,-1.1715504,2.7576804,0.16034794,0.92153317,-0.35478726,0.27476096,-0.28592908,0.9156378,-0.6126202247265916,-0.5131090473258808,-6.324249441196177,0,282,13,1,dws_1/sub_13.csv,4
283,0.54396844,-1.1204133,2.710608,0.23018044,0.9000507,-0.36846915,0.69888604,1.4368736,1.4161241,-0.18281037508766065,8.462224517795606,-1.3690427718283493,0,283,13,1,dws_1/sub_13.csv,4
284,0.6610619,-1.0990471,3.0211186,0.27180415,0.89090586,-0.36520037,-0.7860837,-1.0195788,-0.17049342,-6.556004180757099,4.201622996546377,8.458145729609358,0,284,13,1,dws_1/sub_13.csv,4
285,0.57295793,-1.1897354,2.6729794,0.21073005,0.9283451,-0.30529517,-2.0905683,-0.89693856,-0.71042705,3.285735118570432,7.103274476656062,2.533642651666459,0,285,13,1,dws_1/sub_13.csv,4
286,0.78895044,-1.273465,3.5217414,0.19867653,0.955917,-0.21736212,-1.6911639,-0.24380168,-0.18088794,-2.592467542931622,3.706311037146692,-2.313695878684017,0,286,13,1,dws_1/sub_13.csv,4
287,0.7069335,-1.3579638,0.67699397,0.14740099,0.9777739,-0.14781088,-1.4933693,-0.6104442,-1.4676554,-1.4804756849151393,-1.0606638294054842,-0.5065402862473551,0,287,13,1,dws_1/sub_13.csv,4
288,0.81855035,-1.4739859,2.6920538,0.06437266,0.9950213,-0.07777135,-1.4900811,-0.92421854,-1.7077632,-0.18230182154163627,-3.358000582389907,0.19491098959118233,0,288,13,1,dws_1/sub_13.csv,4
289,-0.7110703,-1.5435393,1.870326,-0.016389549,1.0000628,-0.01598107,-0.84864616,-0.73688996,-1.0997238,1.3755725857065055,-5.034689920589967,-2.2044850987158062,0,289,13,1,dws_1/sub_13.csv,4
290,-1.0104467,-1.5443648,1.5300343,-0.018489957,0.9991098,-0.011204839,0.4384086,-1.0794584,0.61597085,2.657621810144261,-1.9581698362801525,-0.43782729764485023,0,290,13,1,dws_1/sub_13.csv,4
291,0.5355294,-1.5145781,2.3763971,0.024499953,0.9993108,-0.055263042,1.4111843,-0.7069234,1.3357334,2.5543933181210834,-2.476509077202523,2.366660539357492,0,291,13,1,dws_1/sub_13.csv,4
292,0.6202271,-1.3393637,-3.2185712,0.14477769,0.9724532,-0.1745231,3.0790892,0.41731372,2.8961697,3.0495401700617277,6.408934898410557,1.3308500714404234,0,292,13,1,dws_1/sub_13.csv,4
293,0.7301909,-1.189209,-2.8465972,0.23666723,0.92863005,-0.2896741,0.49907738,-3.2625659,2.0333421,1.8629829093425743,6.480128559583886,5.917168352903927,0,293,13,1,dws_1/sub_13.csv,4
294,0.75827503,-1.1315798,-2.8343444,0.30053583,0.90474963,-0.29895848,-0.5794719,-1.6454643,2.4874287,1.013103080175025,0.5899164276017276,0.1301528093928863,0,294,13,1,dws_1/sub_13.csv,4
295,0.8844961,-1.052091,-2.4419436,0.37800452,0.8686991,-0.32204622,-0.79259014,-3.9081805,2.6192105,-1.8445974650838022,-0.03433448979763949,2.1023518622024704,0,295,13,1,dws_1/sub_13.csv,4
296,0.83314365,-1.0076975,-2.3293438,0.39893714,0.8455694,-0.35413623,-1.046068,-3.513386,1.4241252,-1.2288131419968948,-4.412130730529178,0.74604786631642,0,296,13,1,dws_1/sub_13.csv,4
297,0.77890027,-1.0206549,-2.1745133,0.36505076,0.85243773,-0.37432134,-1.0008391,-2.8583713,-0.038243704,-1.6617384613480384,0.33785886010467747,0.13624614175965244,0,297,13,1,dws_1/sub_13.csv,4
298,0.72225434,-1.079119,-2.1513314,0.31366616,0.8817484,-0.35319585,-1.4394445,-0.8636173,-0.6893563,-2.336074519639846,-3.7532922969856974,-2.6117830736540926,0,298,13,1,dws_1/sub_13.csv,4
299,0.7240722,-1.1740876,-2.1189814,0.25340304,0.9222379,-0.2912709,-1.3487788,-0.7483909,-1.3329014,4.148197072990037,-3.0153256355235962,-3.745391075752087,0,299,13,1,dws_1/sub_13.csv,4
300,0.65311307,-1.2142422,-2.124228,0.21582004,0.937117,-0.2753948,-0.21685274,-0.9730761,0.50204337,9.356702915515612,-1.857810141676228,-1.0243004817506773,0,300,13,1,dws_1/sub_13.csv,4
301,0.8518649,-1.2138172,-1.9082724,0.2563023,0.9369891,-0.23604453,-1.8276283,-0.6857991,0.960174,-0.1531591790734056,1.7655461832604946,2.412234692555091,0,301,13,1,dws_1/sub_13.csv,4
302,0.9178283,-1.2500147,-1.721721,0.2586685,0.94895107,-0.18146703,-0.35052156,-0.97231257,-0.3209627,-3.4169880452850894,3.3091537007369958,-0.26294432585818855,0,302,13,1,dws_1/sub_13.csv,4
303,0.8425359,-1.2566055,-1.8473138,0.21720853,0.9511636,-0.21991307,0.34548342,-1.4584376,-0.86020905,-2.0359232760002937,-2.660377768739541,6.124591842082962,0,303,13,1,dws_1/sub_13.csv,4
304,0.6067112,-1.3325235,-1.8206033,0.15268077,0.9716559,-0.17936583,-2.1945426,-2.1834438,-0.77874124,0.8274571425619115,3.0986552900016515,0.9132396838403944,0,304,13,1,dws_1/sub_13.csv,4
305,1.0027525,-1.4107876,-1.5908784,0.1191795,0.98725027,-0.106344864,-1.0040417,-1.3091621,-0.18470821,1.4778297171665258,-2.0172284645723053,-1.841623743147662,0,305,13,1,dws_1/sub_13.csv,4
306,0.72575736,-1.4472246,-1.3807844,0.10252145,0.99244666,-0.067006074,-1.3713478,-1.5783327,-0.3903931,-3.9615605567768757,-0.5608105587413682,2.6075238307254733,0,306,13,1,dws_1/sub_13.csv,4
307,2.2544308,-1.5098252,-0.53315353,0.061208606,0.99824584,0.010225594,-1.5037241,-1.0838045,-1.056486,-0.03355923099574724,-0.1897472091857624,-2.0546997021996467,0,307,13,1,dws_1/sub_13.csv,4
308,1.0467458,-1.5052868,0.7461677,0.008974671,0.9977852,0.064649925,-1.1075221,-1.5420496,-1.0378617,-1.3329048422374017,-1.5025667704257033,1.3239475249141983,0,308,13,1,dws_1/sub_13.csv,4
309,-3.3384714,-1.4403886,1.1968054,-0.027757972,0.99168926,0.12819351,-1.0729023,-0.91244125,-0.66891736,0.23045201441196275,-0.5697497250450558,-1.102194698368094,0,309,13,1,dws_1/sub_13.csv,4
310,-2.6789823,-1.4300274,1.2724214,-0.03213215,0.98987794,0.13587944,0.57457924,-1.389545,0.25336897,3.347678992280902,-0.40832779155169047,2.97316767417004,0,310,13,1,dws_1/sub_13.csv,4
311,1.821406,-1.4659253,0.69598997,0.03857428,0.99487096,0.098354265,0.91265184,-0.15397647,2.2177591,1.2714964929790824,3.393307011937829,1.743897012434119,0,311,13,1,dws_1/sub_13.csv,4
312,1.9947085,-1.4051225,-0.4117874,0.16317958,0.9858988,0.020058155,2.2312884,0.7327329,2.2860658,-3.087874841514602,5.481733987586468,-4.5119480056145935,0,312,13,1,dws_1/sub_13.csv,4
313,1.0885218,-1.3213787,-0.86206925,0.23457986,0.9694379,-0.078034885,1.4461602,-0.33196884,1.0941619,-2.821638694005848,2.8438695199907427,1.8045734144014849,0,313,13,1,dws_1/sub_13.csv,4
314,1.2887925,-1.2281295,-0.90446913,0.3119016,0.94146895,-0.12436339,0.61291206,-0.7893029,2.2508633,2.9854205593326597,1.6929860004300572,-1.4877348268724402,0,314,13,1,dws_1/sub_13.csv,4
315,1.0781652,-1.1186393,-0.8641218,0.39693484,0.8998737,-0.1828761,0.47258806,-2.3366308,1.651036,-1.6028351880281897,-0.35632055408395286,0.24817670851826457,0,315,13,1,dws_1/sub_13.csv,4
316,1.0990757,-1.0768541,-0.83074653,0.41394883,0.8802537,-0.2310727,-0.2685057,-1.7191031,0.3893961,-2.906751784773521,-3.803325092876586,0.15766832655124366,0,316,13,1,dws_1/sub_13.csv,4
317,1.0343009,-1.1007394,-0.7789947,0.39424935,0.8917006,-0.22285177,-0.9412388,-0.5134962,-0.7160255,0.34687316602818413,-5.992174679703947,-0.6826562158372509,0,317,13,1,dws_1/sub_13.csv,4
318,1.0974318,-1.1893312,-0.7316543,0.32951277,0.9280732,-0.17364064,-1.332444,-0.26531243,-1.7577616,1.168100168803172,-2.353882456024856,-1.9330257658989984,0,318,13,1,dws_1/sub_13.csv,4
319,1.0977669,-1.2894759,-0.6871723,0.24745613,0.9607489,-0.12533464,-0.91734153,-0.7370049,-1.2659845,-0.05195985499794604,2.872626348134855,-1.533716659809052,0,319,13,1,dws_1/sub_13.csv,4
320,1.1526474,-1.3264457,-0.5967237,0.22113179,0.9702686,-0.09923108,-0.80523086,-0.79347515,0.029944167,-2.9061985757789457,-2.3821141149506655,-1.0804663560608923,0,320,13,1,dws_1/sub_13.csv,4
321,1.3243712,-1.3616896,-0.38433683,0.20094372,0.9781665,-0.05039583,-1.2541505,-0.5115948,-0.93651474,-2.095682217857275,-11.738077560027373,1.4605885355669403,0,321,13,1,dws_1/sub_13.csv,4
322,1.5023909,-1.4214194,-0.13689196,0.14884047,0.9889841,-0.010781854,-0.94227505,-2.2970135,-0.59308946,0.28557436322874724,-11.032291754822852,-1.882910815823732,0,322,13,1,dws_1/sub_13.csv,4
323,1.7064497,-1.3911752,0.1723882,0.17663664,0.9837333,0.02495262,-0.86595905,-0.5025282,1.4169668,-2.161193451653792,11.042561862835342,1.2294565336428966,0,323,13,1,dws_1/sub_13.csv,4
324,1.7077293,-1.3195462,0.07375455,0.24622178,0.9688658,0.033545434,1.0988456,2.5693607,1.1224062,1.8151081632461583,8.301423834121016,0.9250668354261222,0,324,13,1,dws_1/sub_13.csv,4
325,1.5923271,-1.3142495,-0.08275783,0.25357586,0.9669191,0.005209923,0.117489845,-0.5380799,-0.26820123,4.523066363639479,0.8294314107575658,2.5594562569391526,0,325,13,1,dws_1/sub_13.csv,4
326,1.479226,-1.2845275,-0.20311403,0.28106835,0.9596364,-0.026043639,1.8493207,0.5838475,1.5979791,3.011844159027162,3.2298551053396527,-1.3603487538111982,0,326,13,1,dws_1/sub_13.csv,4
327,1.192777,-1.1390897,-0.49167156,0.3897003,0.9080484,-0.15338302,2.2654345,-1.120385,2.5028214,-1.2945225353505,12.918401223733666,-2.0175172475239735,0,327,13,1,dws_1/sub_13.csv,4
328,1.1457214,-1.0509133,-0.5138936,0.4517221,0.86798537,-0.20583466,0.15707593,0.34236017,0.44582075,-2.946129101414597,-0.735837104847514,1.1713482221119245,0,328,13,1,dws_1/sub_13.csv,4
329,1.1757343,-1.0852405,-0.5225117,0.4312528,0.88437575,-0.17905626,-0.6512058,0.60650325,-1.3328667,0.08336550339793083,-4.008600599184224,-0.8029288181522933,0,329,13,1,dws_1/sub_13.csv,4
330,1.2357712,-1.201556,-0.45723212,0.34062594,0.9326039,-0.118864276,-1.6899043,-0.46836042,-2.4511142,-0.7759302852031926,-5.665169266387223,-1.0887131004122863,0,330,13,1,dws_1/sub_13.csv,4
331,1.3419658,-1.3324137,-0.2925067,0.230016,0.9717975,-0.053392373,-1.5125544,-1.4770912,-1.6385907,1.4359626401995629,0.36647692000428117,-1.3407822885061587,0,331,13,1,dws_1/sub_13.csv,4
332,1.4854337,-1.3684939,-0.06708729,0.20016778,0.97952276,-0.017393313,-0.60074794,-1.1897297,0.12493031,-3.2728776075840327,-0.0035556087094049636,-2.661242347274968,0,332,13,1,dws_1/sub_13.csv,4
333,1.5143685,-1.3633306,-0.032811522,0.205457,0.97858614,-0.011261553,-0.02747941,0.5289748,-0.123214,-0.7043991412892657,-7.323910434465797,2.225254756825542,0,333,13,1,dws_1/sub_13.csv,4
334,1.6258532,-1.3751254,0.11372793,0.19436266,0.9809845,0.010351539,-1.0970844,-1.9836535,-0.10253615,-2.700199964271231,-12.187628603548402,1.343543088818172,0,334,13,1,dws_1/sub_13.csv,4
335,1.7699442,-1.3437536,0.33579826,0.22048785,0.97419673,0.04457304,-0.37962425,0.1346915,1.0375314,0.9294707632601384,12.363432435679677,1.6522134126855257,0,335,13,1,dws_1/sub_13.csv,4
336,1.6891197,-1.3006684,0.16749191,0.26504752,0.9639103,0.03216341,1.2362775,1.7421019,0.6345666,1.0902856924388615,6.57879754568902,0.9245621360991677,0,336,13,1,dws_1/sub_13.csv,4
337,1.6274587,-1.3037701,0.04884076,0.26277208,0.9643221,0.013699204,0.0444998,1.1998178,-0.24774244,1.384890982284134,1.2084608655364104,2.0201177072175036,0,337,13,1,dws_1/sub_13.csv,4
338,1.6058784,-1.2767292,-0.068822384,0.29071042,0.95739394,0.01144129,1.6149701,1.5442479,1.5648134,5.849063501606753,-0.6913814033921791,-3.910862379521714,0,338,13,1,dws_1/sub_13.csv,4
339,1.2543865,-1.1413792,-0.41663933,0.3948655,0.9089494,-0.12991777,3.132226,-1.8910062,2.446165,0.9830959628359476,4.084398989237734,-1.1264064025008615,0,339,13,1,dws_1/sub_13.csv,4
340,1.0750052,-1.0225952,-0.553939,0.45856005,0.8534955,-0.24818915,1.144179,0.16233501,0.856899,-4.463677093789126,5.096551511005038,2.8964139103070923,0,340,13,1,dws_1/sub_13.csv,4
341,1.1491446,-1.0329802,-0.5573,0.467618,0.85908437,-0.20912838,-1.0565056,2.1942594,-1.1458277,-1.5699253921808831,2.165266575732537,-2.852703074786802,0,341,13,1,dws_1/sub_13.csv,4
342,1.348616,-1.170955,-0.43469167,0.37940395,0.9207014,-0.08632472,-2.2208672,1.0815115,-2.9627087,4.190372844224899,-0.24718284872292756,-1.496912075463144,0,342,13,1,dws_1/sub_13.csv,4
343,1.586402,-1.3136629,-0.15799153,0.2544975,0.9675446,0.0043942034,-1.775614,-1.8836575,-2.0742986,-0.5729006885776075,-4.5488284779004715,-2.9145907726407687,0,343,13,1,dws_1/sub_13.csv,4
344,1.7016017,-1.3813033,0.08780801,0.18642098,0.9817506,0.02464801,-0.14335074,-2.17093,-1.0360013,-0.07408518730878805,-5.691955586903946,-0.3425119023057705,0,344,13,1,dws_1/sub_13.csv,4
345,1.6128592,-1.4039053,0.047572494,0.16652651,0.98638064,0.0062996745,-0.117700346,-0.40456244,0.1751346,-1.3140074931726105,-16.523749522788478,3.1190496269351713,0,345,13,1,dws_1/sub_13.csv,4
346,1.7738621,-1.3593584,0.24457777,0.20481753,0.97755724,0.042794883,-0.96050656,-0.5300368,1.0236313,-6.384989812424923,1.875785075335876,0.15855186309000865,0,346,13,1,dws_1/sub_13.csv,4
347,1.7757287,-1.3166753,0.1888957,0.24631216,0.96798015,0.05090356,0.9245296,2.2525518,0.70960814,3.2894939156266476,10.343525191921165,0.7336485613636755,0,347,13,1,dws_1/sub_13.csv,4
348,1.7505143,-1.3008407,0.073200345,0.26215458,0.96370703,0.047576144,-0.06819645,0.7509748,0.24700263,5.438112549235891,-0.7624884065032966,-0.06446045254520215,0,348,13,1,dws_1/sub_13.csv,4
349,1.7300522,-1.2866726,0.02899468,0.2770279,0.960029,0.044944614,0.9233236,0.68032706,0.6484469,2.374069550969197,0.6291600026164933,0.1846535525114843,0,349,13,1,dws_1/sub_13.csv,4
350,1.4565109,-1.2114191,-0.280625,0.34921375,0.93587744,-0.040571496,2.3990586,-0.32088166,2.2442143,1.446780025997033,5.273101066530604,-1.9059415395404367,0,350,13,1,dws_1/sub_13.csv,4
351,1.2380036,-1.0819567,-0.46486712,0.44388753,0.8832395,-0.15329255,1.455243,-0.89669526,1.6181495,-1.8152643582545116,7.702408133983961,1.5730868367676603,0,351,13,1,dws_1/sub_13.csv,4
352,1.2279725,-1.0561907,-0.5010923,0.46359652,0.8700944,-0.16518289,-0.22389501,1.4466736,-0.5789881,-3.7527057845205674,-1.4378460495273404,-0.4603576048054513,0,352,13,1,dws_1/sub_13.csv,4
353,1.326838,-1.1430348,-0.46655142,0.40250456,0.9102727,-0.100631475,-1.09919,0.71277976,-2.3987548,0.007418929808524516,-0.8350291010638545,-1.3818712316341477,0,353,13,1,dws_1/sub_13.csv,4
354,1.411163,-1.2957245,-0.34717393,0.26817593,0.96213526,-0.04291498,-1.5789789,-1.4507188,-2.7291777,1.2303153873400499,-4.7464508408296116,-2.359558155572669,0,354,13,1,dws_1/sub_13.csv,4
355,1.5647546,-1.400166,-0.09316695,0.16978396,0.98558944,-0.000908494,-0.7753895,-2.031812,-1.4252228,-0.00860457905082642,-7.297656063482327,-0.1788257396863941,0,355,13,1,dws_1/sub_13.csv,4
356,1.5884858,-1.4383621,0.026200652,0.13181287,0.9912726,0.0019168854,-0.33008248,-1.6410937,-0.06564637,-1.0904803665316067,-16.012885299170293,3.807676926638375,0,356,13,1,dws_1/sub_13.csv,4
357,1.7749023,-1.3987864,0.26071274,0.16717242,0.9851344,0.035771847,-1.0387622,0.0027446747,0.97428644,-4.727383298045542,5.22313576512362,3.1141984199594837,0,357,13,1,dws_1/sub_13.csv,4
358,1.9029937,-1.3672062,0.3241657,0.19153975,0.9794133,0.06506702,0.36315852,2.1668794,0.30479482,2.509425478150255,11.445373980194168,0.8601510650868149,0,358,13,1,dws_1/sub_13.csv,4
359,1.8196323,-1.360995,0.18420637,0.20181149,0.9780295,0.051911578,0.19025843,-0.2266978,0.16527447,5.893003226749109,-2.153647121879735,-0.13703760410500918,0,359,13,1,dws_1/sub_13.csv,4
360,1.870774,-1.3603945,0.24971747,0.19936445,0.97802335,0.061469376,-0.24252984,0.66089034,0.08283839,-1.2844523262548322,2.6962046154365558,3.2366995308279147,0,360,13,1,dws_1/sub_13.csv,4
361,1.6958523,-1.3062198,0.0014665127,0.2591067,0.96497506,0.03178692,2.0029092,0.743104,2.3136055,3.558177328007091,3.4978197220795586,-4.0481421779275575,0,361,13,1,dws_1/sub_13.csv,4
362,1.3092812,-1.1908664,-0.35992754,0.3588909,0.92913985,-0.09534949,2.097298,-1.3464367,1.440951,-3.124442946673273,5.257024461008081,1.8297334640134513,0,362,13,1,dws_1/sub_13.csv,4
363,1.2095343,-1.1566294,-0.47492862,0.37650466,0.91490746,-0.14106439,0.23347457,1.2684746,-0.2837254,-3.497207205314214,1.756770712346668,-0.38355201686423956,0,363,13,1,dws_1/sub_13.csv,4
364,1.2951986,-1.1983671,-0.44966066,0.34950945,0.9320816,-0.102142595,-0.6387532,0.661484,-1.3049529,0.032149151944378576,-2.6963009290307656,-1.6515222634713849,0,364,13,1,dws_1/sub_13.csv,4
365,1.2728456,-1.3229055,-0.4501028,0.23572439,0.96875376,-0.06869167,-1.0624934,-1.2549322,-2.9615052,-0.33037897271647304,-4.736478871582683,-2.138594565793779,0,365,13,1,dws_1/sub_13.csv,4
366,1.4703438,-1.4407159,-0.16471481,0.12841526,0.992131,-0.013912216,-1.362363,-1.5984137,-0.97198725,1.4037975299135192,-3.713860713710951,-1.072066981820603,0,366,13,1,dws_1/sub_13.csv,4
367,1.5458016,-1.457342,-0.040575385,0.11282779,0.99316275,-0.002353251,0.42861187,-0.6776848,-0.34040648,-4.523495914193148,-9.318191125932112,0.858938205790872,0,367,13,1,dws_1/sub_13.csv,4
368,1.452848,-1.4707464,-0.086324215,0.09866309,0.9954626,-0.011458725,-0.6590205,-1.0755478,0.28114155,-0.27073337101554534,-15.605963018869241,2.680185002891011,0,368,13,1,dws_1/sub_13.csv,4
369,1.8664567,-1.4208629,0.34061134,0.1436754,0.98838913,0.04166749,-0.98049504,0.7084098,0.8209684,-2.91850706407408,13.446602299241372,0.10434468931385926,0,369,13,1,dws_1/sub_13.csv,4
370,2.0394218,-1.420267,0.47697282,0.13326411,0.9890777,0.06990859,-0.021346942,0.016814739,-0.714096,6.784452873283747,5.23891642749259,-0.7668083055502947,0,370,13,1,dws_1/sub_13.csv,4
371,2.0233827,-1.4473766,0.5259971,0.110155195,0.99183494,0.05055739,0.33697748,-1.7312936,-0.3334814,9.22879096456248,-1.627008997905216,-0.4345642905663572,0,371,13,1,dws_1/sub_13.csv,4
372,1.6101711,-1.4569547,0.16338313,0.114913926,0.99454147,0.008357033,1.4174771,-0.6597198,0.73071384,-0.5829044103013352,-2.740320407013738,-0.4404225923966398,0,372,13,1,dws_1/sub_13.csv,4
373,1.1530252,-1.3213431,-0.24459398,0.22519809,0.96779895,-0.103020206,1.8013035,-1.2127181,3.3255801,0.6046469198591669,12.17815887232618,3.6223203728915445,0,373,13,1,dws_1/sub_13.csv,4
374,1.3203356,-1.1795713,-0.056936264,0.3675473,0.9254703,-0.09343639,-1.7271501,0.5133718,2.522854,-0.15336867681263303,14.664764250146996,0.18997392514707898,0,374,13,1,dws_1/sub_13.csv,4
375,1.4726927,-1.0800235,0.17246044,0.46977377,0.8810775,-0.04694885,-0.98155344,-2.9915345,2.2631068,1.6779076092105765,-0.5360765773905767,-3.3780493523262303,0,375,13,1,dws_1/sub_13.csv,4
376,1.36509,-1.0091075,0.25773466,0.5216755,0.84710896,-0.108570784,-0.6946367,-3.254201,0.5838319,-2.905447118857922,-1.3809068832156195,1.1054053336042997,0,376,13,1,dws_1/sub_13.csv,4
377,1.2641745,-1.0238802,0.30295944,0.49559397,0.85372716,-0.1563224,-0.40240896,-2.6657882,-0.4423923,-5.898430072416809,-6.209291514561901,0.6203008099406944,0,377,13,1,dws_1/sub_13.csv,4
378,1.2331408,-1.0870204,0.36924922,0.4386239,0.88543576,-0.15542161,-1.6910695,-0.7993605,-1.730099,-4.4161910315344794,-11.143811128397786,1.222100873205089,0,378,13,1,dws_1/sub_13.csv,4
379,1.2355194,-1.2006184,0.43704492,0.34174645,0.9325834,-0.11743491,-0.32423878,-2.232638,-1.2756112,5.305884469713856,2.197449901478193,-4.383346281337691,0,379,13,1,dws_1/sub_13.csv,4
380,1.1211184,-1.1599011,0.43564647,0.36010274,0.9162715,-0.17389153,0.23674802,-1.1933907,1.8952171,7.1035017662382165,-0.9242461267217128,-0.3562151381478182,0,380,13,1,dws_1/sub_13.csv,4
381,1.2376856,-1.1129733,0.5629257,0.417345,0.8973856,-0.1443188,-0.93858045,0.0707781,0.38867754,-1.4582870640607537,7.5590916976958145,-2.348574117787168,0,381,13,1,dws_1/sub_13.csv,4
382,1.2215055,-1.1178485,0.57251513,0.41125357,0.8989479,-0.15046564,0.63555586,-0.49122223,-0.20134676,-5.40868732124701,4.1874562242228635,-1.0870019562983408,0,382,13,1,dws_1/sub_13.csv,4
383,1.1049467,-1.155554,0.47264892,0.3607341,0.91511524,-0.17974085,-0.17551231,-1.2553083,-1.7793967,-3.880056781808598,-3.688327901739071,5.784909893292823,0,383,13,1,dws_1/sub_13.csv,4
384,1.0387094,-1.2543383,0.53762805,0.26740846,0.95042074,-0.15906456,-1.9238753,-2.9128733,-0.7321683,2.216794582616935,3.845786055606876,1.284526951873152,0,384,13,1,dws_1/sub_13.csv,4
385,1.1637288,-1.2917876,0.77020115,0.25307864,0.96128654,-0.10818133,-1.017551,-1.3719891,0.07548303,-3.812520247022044,-2.0712659240202527,-4.775264585826882,0,385,13,1,dws_1/sub_13.csv,4
386,1.2154932,-1.3257115,0.90097207,0.22743702,0.9701432,-0.08529808,-1.0858551,-1.5532023,-0.67941904,-2.6964134574076795,-0.861839035364201,-0.32495414529762306,0,386,13,1,dws_1/sub_13.csv,4
387,1.3717811,-1.38203,1.1123594,0.18373452,0.98240066,-0.03590951,-1.0231751,-0.5211853,-0.9492055,-1.5950489162084216,-2.5658863735760913,-0.5708386473916612,0,387,13,1,dws_1/sub_13.csv,4
388,1.5914803,-1.438443,1.3684576,0.13278106,0.9911405,0.0014085919,-1.0843754,-1.1015705,-1.0049871,-0.6668836903190742,-1.4331467319417452,0.6357942572524594,0,388,13,1,dws_1/sub_13.csv,4
389,2.1826296,-1.4527913,2.043715,0.094680876,0.9933585,0.06937952,-1.559762,-1.6961038,-0.6272866,1.5646964962990517,-0.20351789960489897,-1.10394030354488,0,389,13,1,dws_1/sub_13.csv,4
390,2.3968315,-1.444734,2.3350282,0.08701064,0.99164814,0.09158985,0.370171,-1.4828391,0.008526854,3.413737637796478,0.09220963729078124,-0.5940822439833484,0,390,13,1,dws_1/sub_13.csv,4
391,1.7505922,-1.4401268,1.7627056,0.12735078,0.99224347,0.022898749,1.7185707,-1.329097,1.588733,3.1391280650926774,-1.6465607130457358,4.388650877996645,0,391,13,1,dws_1/sub_13.csv,4
392,1.2768221,-1.2970345,1.3044583,0.25980684,0.9620225,-0.07572207,1.930015,0.0062357783,3.1346664,-0.36060915588483156,4.108267329255486,-0.337748069736969,0,392,13,1,dws_1/sub_13.csv,4
393,1.199217,-1.166551,1.2477498,0.3655355,0.91991436,-0.14528176,0.58269554,-1.033932,1.5655146,-1.7108808329586183,3.2395797464817417,1.3649692675410539,0,393,13,1,dws_1/sub_13.csv,4
394,1.1936971,-1.0862505,1.3111693,0.43370885,0.88449,-0.16948496,-0.25428942,-1.4029423,2.294718,2.9374524191652815,-2.4925791041065413,1.3938219171067545,0,394,13,1,dws_1/sub_13.csv,4
395,1.1939677,-0.9670968,1.4554625,0.5273951,0.8236411,-0.21067704,-0.73420984,-3.595903,2.7111702,2.323295235647308,0.12387375736354905,1.3700378339744421,0,395,13,1,dws_1/sub_13.csv,4
396,1.0977173,-0.8881644,1.6005605,0.5620165,0.77563035,-0.28614292,-1.1439027,-4.186163,1.7643874,-0.8064746599098153,-0.16737652280269333,1.799866842307656,0,396,13,1,dws_1/sub_13.csv,4
397,1.0301664,-0.86397433,1.7355366,0.5564903,0.76072884,-0.33509344,-1.3426882,-2.7881775,0.78317416,-1.3216419333856888,-1.3199706987278774,-0.17942117854386236,0,397,13,1,dws_1/sub_13.csv,4
398,0.9957887,-0.8895632,1.8353782,0.5288396,0.7766907,-0.34182262,-1.4295555,-1.8238463,-0.06844511,-2.620558406832532,-2.264602571652489,0.06777951203924706,0,398,13,1,dws_1/sub_13.csv,4
399,0.9938951,-0.9555931,1.9276564,0.48366416,0.8167699,-0.3150607,-1.7959553,-1.2868575,-0.9451487,-1.0664671177063902,-3.458295931824074,-2.1677644559292206,0,399,13,1,dws_1/sub_13.csv,4
400,0.98467135,-1.0387206,1.9837116,0.4228807,0.86186475,-0.28027543,-0.91292655,-1.0269338,-0.6745145,5.471912714400553,-0.04954972339450741,-3.397775166961869,0,400,13,1,dws_1/sub_13.csv,4
401,1.0070027,-1.0353987,2.0560343,0.4313928,0.85993564,-0.27248988,-0.6430917,-0.48791057,1.1639209,7.476121462274703,0.6746476477439566,0.02847635578783773,0,401,13,1,dws_1/sub_13.csv,4
402,1.1087453,-1.0203066,2.195142,0.4681121,0.8524418,-0.23326617,-1.2986846,-0.4718483,0.5758822,-2.253649478514591,8.009017025838839,-0.9243630175507126,0,402,13,1,dws_1/sub_13.csv,4
403,1.1407492,-1.0281136,2.2707908,0.4694817,0.85617477,-0.21542946,-0.15233245,-0.61793774,-0.0770034,-4.073805420559606,-2.6370496303569113,0.47383687207874636,0,403,13,1,dws_1/sub_13.csv,4
404,1.05656,-1.0599424,2.210894,0.42582053,0.8724694,-0.24008295,0.053911045,-0.96897626,-1.5052443,-4.134655672945983,-0.26141664883555854,3.6422339422562118,0,404,13,1,dws_1/sub_13.csv,4
405,0.9985162,-1.1469494,2.2199657,0.3453489,0.91146386,-0.22318992,-1.5828522,-1.1985171,-0.97513354,0.5315134341973405,2.986358580976241,1.7732400166156776,0,405,13,1,dws_1/sub_13.csv,4
406,1.0858419,-1.1962878,2.334441,0.3238661,0.9306975,-0.17020506,-0.80261326,0.055993676,-0.16428322,-0.09331061713378841,-0.7837660561473757,-0.5321729823369158,0,406,13,1,dws_1/sub_13.csv,4
407,1.1267513,-1.225087,2.3955398,0.30584034,0.94087857,-0.14578111,-0.74125457,-0.6206401,-0.43552387,-1.7834135796913453,-0.6483015284495862,0.7305922100567638,0,407,13,1,dws_1/sub_13.csv,4
408,1.1910158,-1.2573072,2.482544,0.28649715,0.95124614,-0.11417918,-0.61352503,-0.05589527,-0.27834255,-0.7897681875460213,-1.923872916086535,-0.2664744575422502,0,408,13,1,dws_1/sub_13.csv,4
409,1.2177554,-1.270581,2.5060315,0.2775535,0.9553766,-0.10221206,0.034777895,0.14067498,-0.113370754,-1.6077450577487542,-2.864131443718534,0.3801766344751974,0,409,13,1,dws_1/sub_13.csv,4
410,1.1967037,-1.264504,2.4723983,0.28042254,0.9533057,-0.11036326,0.4121642,0.30106136,0.14838348,-0.8529907666637172,-6.075668350107966,-0.8750912288115161,0,410,13,1,dws_1/sub_13.csv,4
411,1.1440728,-1.2443157,2.393619,0.29242343,0.9474427,-0.13236603,0.592259,0.59039545,0.1785517,-1.2400659416402664,-2.7796264468875256,0.04188871020190417,0,411,13,1,dws_1/sub_13.csv,4
412,1.1798257,-1.2431803,2.3945658,0.2967806,0.9464201,-0.123159714,-0.4582709,0.73533857,-0.12237323,2.364314582351734,-0.7399446158631444,2.2167240269818254,0,412,13,1,dws_1/sub_13.csv,4
413,1.2053761,-1.2202275,2.3864229,0.32164443,0.9397099,-0.12216785,1.3799556,0.48155794,1.2928264,2.5815760205258127,3.2851926304105015,-1.3767682929217435,0,413,13,1,dws_1/sub_13.csv,4
414,1.0757743,-1.0594487,2.2460284,0.42999184,0.8715898,-0.23253512,2.3304605,-0.34982178,2.918998,1.545232413068188,13.613950626216347,-2.7487610574700794,0,414,13,1,dws_1/sub_13.csv,4
415,1.0920315,-0.9460707,2.2780845,0.5189949,0.81140065,-0.27008754,-0.35475263,0.05141902,1.3134273,1.977302571029772,5.267005664881646,0.48341618720143353,0,415,13,1,dws_1/sub_13.csv,4
416,1.1583414,-0.9379064,2.3531318,0.54222786,0.80624384,-0.23589846,-0.967949,0.058789015,-0.015438929,-2.255319483808593,-2.4093916605927985,-0.8202047551701602,0,416,13,1,dws_1/sub_13.csv,4
417,1.1942308,-1.0130773,2.416221,0.4918834,0.84841967,-0.19623569,-1.1648542,-0.8617654,-2.131482,-1.2450154347819664,-3.531250763624768,-1.1614683658297016,0,417,13,1,dws_1/sub_13.csv,4
418,1.0732441,-1.1365384,2.382454,0.36987162,0.9072777,-0.19922873,-0.6202791,-2.4055986,-1.9749779,0.23857734549058052,-2.866986533743211,-0.11683260208923257,0,418,13,1,dws_1/sub_13.csv,4
419,0.9920888,-1.2100769,2.4125285,0.29523787,0.9356055,-0.19447571,-1.0286422,-1.7403101,-0.8096308,-5.794110614945703,-4.829178771371341,0.21733978712428487,0,419,13,1,dws_1/sub_13.csv,4
420,0.8853029,-1.2623796,2.3742886,0.23494281,0.95276725,-0.19045042,0.08909693,-1.4525532,-0.97034264,-0.3653846637596947,-10.172740830219585,-0.5781030664546203,0,420,13,1,dws_1/sub_13.csv,4
421,0.79856074,-1.2611021,2.3715029,0.21870397,0.9525599,-0.21428877,-0.19195458,-1.3909128,1.0109426,-0.6629897244195948,-10.073542484844076,0.7095772147871033,0,421,13,1,dws_1/sub_13.csv,4
422,1.0008984,-1.2083619,2.55648,0.29769987,0.9348019,-0.19042143,-0.10410613,2.3596509,1.5220801,0.3690203201238687,11.943431323486795,1.7334618495354057,0,422,13,1,dws_1/sub_13.csv,4
423,1.1369866,-1.1554191,2.568788,0.3668772,0.91541433,-0.16971385,1.0549192,1.7452507,0.9081612,4.493338796587538,2.976309391319319,-1.967919216039049,0,423,13,1,dws_1/sub_13.csv,4
424,1.0617701,-1.0129163,2.4713125,0.46167746,0.84761864,-0.2577675,2.7808833,-0.5884158,3.307431,6.086208117974015,4.113686424155486,1.2054942698452433,0,424,13,1,dws_1/sub_13.csv,4
425,1.0218202,-0.8190483,2.4508762,0.58304465,0.7312763,-0.35687456,1.0351456,-0.17224145,2.250507,0.3711503461847174,15.891559237700331,-3.1613224378849063,0,425,13,1,dws_1/sub_13.csv,4
426,1.0758195,-0.8161967,2.481103,0.60237086,0.7279656,-0.32476035,-0.9515742,1.276774,-1.0256736,-1.112855685313958,0.7686121530946911,-2.0463747990709757,0,426,13,1,dws_1/sub_13.csv,4
427,1.14585,-0.91460353,2.508684,0.5562274,0.7927625,-0.2521758,-1.388745,0.15409121,-2.0499675,-1.1274636034911996,-5.792142683377185,-1.1993091379553655,0,427,13,1,dws_1/sub_13.csv,4
428,1.1160918,-1.0671306,2.5281396,0.43323562,0.8754748,-0.2113803,-1.3829159,-1.4221729,-2.983178,-1.058782232251388,-4.621666849264573,-1.5317840183095226,0,428,13,1,dws_1/sub_13.csv,4
429,1.0222433,-1.1941725,2.5199428,0.3141421,0.93018144,-0.19212782,-0.972492,-2.002816,-1.3261738,1.415262127408318,-4.154683499949515,-0.041886000580054004,0,429,13,1,dws_1/sub_13.csv,4
430,0.97900784,-1.2183665,2.5605297,0.2860136,0.9383409,-0.19250098,0.0064893663,-0.9739051,0.2888646,-1.8891916793776344,-4.7289443886725,1.4568542411023948,0,430,13,1,dws_1/sub_13.csv,4
431,0.9578744,-1.2173215,2.5860357,0.28367773,0.93827116,-0.19900325,-0.8089784,-1.3924353,-0.14065972,-5.041973841418372,-11.727464784100631,4.034350920889488,0,431,13,1,dws_1/sub_13.csv,4
432,1.0580915,-1.2504859,2.7744217,0.274111,0.9492037,-0.15433043,-1.1735768,-0.74093556,0.68143064,0.9943768343591249,9.237742232106939,0.02211088929915415,0,432,13,1,dws_1/sub_13.csv,4
433,1.1467448,-1.1900365,2.830145,0.33870205,0.9283545,-0.15311295,0.9754389,1.0289453,1.2180008,4.198328226821157,8.174700197745342,1.1770778013763754,0,433,13,1,dws_1/sub_13.csv,4
434,1.140312,-1.1870013,2.8108914,0.33989114,0.92694294,-0.15651639,-0.69074523,0.035268873,-0.86089957,-2.3187399497592294,-1.4486639730495934,3.593700936177469,0,434,13,1,dws_1/sub_13.csv,4
435,1.211719,-1.2064918,2.820876,0.33431187,0.93475693,-0.12452024,0.8088896,2.0743897,0.69266534,2.5364721557546264,0.5473260109316551,0.19470430673845815,0,435,13,1,dws_1/sub_13.csv,4
436,1.1456014,-1.0805686,2.683478,0.42834026,0.8820408,-0.19458732,2.3986347,0.18226233,2.502684,2.7545209422897687,6.036185397799736,-2.3304035139166515,0,436,13,1,dws_1/sub_13.csv,4
437,1.1044486,-0.94732255,2.6258802,0.5216785,0.8119875,-0.2626317,0.9619855,0.59504366,1.4761409,0.4801809529832469,9.240596031547895,0.37487027237441395,0,437,13,1,dws_1/sub_13.csv,4
438,1.1413182,-0.92345774,2.6335123,0.5483216,0.7975202,-0.25052524,-0.46768415,0.2766939,-0.21310124,0.40369833244832826,1.0262619400720567,-1.5641724854109447,0,438,13,1,dws_1/sub_13.csv,4
439,1.1589831,-0.97652316,2.6645017,0.5129868,0.82881063,-0.22513255,-0.7964566,-0.3500147,-1.4321773,-3.137401546724661,-5.314776553811119,-0.22845824724418226,0,439,13,1,dws_1/sub_13.csv,4
440,1.1093916,-1.0937383,2.6447983,0.41133228,0.8880665,-0.20328419,-0.9597054,-0.92999446,-2.507962,-2.2183349517741267,-3.4361927449251217,0.0905172866034809,0,440,13,1,dws_1/sub_13.csv,4
441,1.0800972,-1.1968455,2.6697164,0.32196546,0.9311444,-0.1729504,-1.05456,-1.1057992,-0.9848107,-2.8055618350742404,-1.8521044280778274,-0.13308554049606566,0,441,13,1,dws_1/sub_13.csv,4
442,1.0405614,-1.2509338,2.6915827,0.2712981,0.9490564,-0.15823515,-0.33194792,-1.1323891,-1.1046652,-1.2289520199764634,-7.202354228390433,-0.10192845596761547,0,442,13,1,dws_1/sub_13.csv,4
443,0.9398247,-1.2921727,2.6251097,0.22206786,0.96164715,-0.16293553,-0.086026475,-0.5873009,-0.26682866,3.0958889793178455,-15.938387171469543,2.266594318315275,0,443,13,1,dws_1/sub_13.csv,4
444,1.0192385,-1.2750597,2.7549946,0.24809662,0.95638937,-0.15239725,-0.7031724,-0.71599966,1.1399503,-1.7385966828602306,1.0903395017704671,-0.3599723986579887,0,444,13,1,dws_1/sub_13.csv,4
445,1.164953,-1.2298108,2.8532903,0.30739823,0.9426153,-0.1321665,0.77327317,2.2800603,1.07911,1.7600855566606017,13.851457894401932,-1.3217896779005456,0,445,13,1,dws_1/sub_13.csv,4
446,1.1451155,-1.1804557,2.7537537,0.3464164,0.9245271,-0.15695556,0.56486523,0.279493,0.05801795,1.8274872605664343,1.7233483752310568,0.3220180789726283,0,446,13,1,dws_1/sub_13.csv,4
447,1.1682851,-1.1873754,2.7514205,0.34454283,0.92792636,-0.1463647,0.14231955,1.3935376,0.39970306,2.099131718391698,-1.305293089580642,2.811929734249148,0,447,13,1,dws_1/sub_13.csv,4
448,1.1745536,-1.0712793,2.6847138,0.44100338,0.8770091,-0.1854034,2.1220834,0.45380715,2.7940824,4.550291029897763,9.480399956389352,-2.5476516939338207,0,448,13,1,dws_1/sub_13.csv,4
449,1.1026002,-0.9482386,2.6254992,0.5211037,0.8131223,-0.2629569,0.8617977,-0.32366332,0.8358375,-1.2837347230820269,8.828720654699675,0.4774246445801453,0,449,13,1,dws_1/sub_13.csv,4
450,1.1013678,-0.95380545,2.5972915,0.51577735,0.8151208,-0.26131594,-0.10225062,0.7665514,-0.8258724,-1.3026760044945647,-2.169504697671755,-0.8539912901268174,0,450,13,1,dws_1/sub_13.csv,4
451,1.1137522,-1.0263983,2.5838995,0.4645741,0.85580194,-0.22950381,-0.83104277,0.026672065,-1.9191674,-1.198274177945911,-3.881572839189731,-0.656897470479218,0,451,13,1,dws_1/sub_13.csv,4
452,1.0465852,-1.1565678,2.5635962,0.3488342,0.9152129,-0.20039183,-1.1643201,-1.7514318,-2.4073331,0.2342899123724799,-2.4071668313646413,-2.487075073146632,0,452,13,1,dws_1/sub_13.csv,4
453,0.989081,-1.2480292,2.5899334,0.2644492,0.9484689,-0.17481385,-0.9610488,-1.1611217,-0.5432952,-1.1304185214175213,-2.3964815808535205,0.10611030118605141,0,453,13,1,dws_1/sub_13.csv,4
454,1.0296412,-1.2727236,2.659462,0.25238425,0.95584464,-0.15114227,-0.3740108,-0.1644168,-0.2627767,-3.237530424995649,-6.968233682512679,-1.4227640021569357,0,454,13,1,dws_1/sub_13.csv,4
455,0.9952202,-1.3017954,2.6459384,0.22205661,0.9640906,-0.14446306,-0.20460568,-0.80728585,-0.5025882,1.532902130620108,-13.07548758300379,-1.218458169834968,0,455,13,1,dws_1/sub_13.csv,4
456,1.0218453,-1.3188602,2.758205,0.21369314,0.96837336,-0.13075808,-1.2389616,-1.7634345,0.4340825,-2.671734395877886,-5.691694207392669,1.939306648647316,0,456,13,1,dws_1/sub_13.csv,4
457,1.3334692,-1.3093073,3.0778294,0.25059107,0.966023,-0.05938659,-0.9539499,1.7087886,1.0035728,2.710256863817596,16.47136883239033,4.261678109284597,0,457,13,1,dws_1/sub_13.csv,4
458,1.3744817,-1.2634447,3.0627694,0.29616863,0.95325786,-0.0603078,0.9841587,-0.6859771,0.46923327,3.9677811464455375,2.360577698768715,-0.6917213270443372,0,458,13,1,dws_1/sub_13.csv,4
459,1.1971306,-1.2773123,2.9539914,0.26992944,0.95715094,-0.10557844,-0.0042739213,-0.630531,-0.7170318,-1.1787665219262105,0.25544732034855777,3.915583435288998,0,459,13,1,dws_1/sub_13.csv,4
460,1.2118979,-1.238866,2.9064379,0.30482575,0.9451876,-0.11412844,1.357838,1.6320107,1.9953433,2.197758660634694,0.5602825485204843,-3.073308028027366,0,460,13,1,dws_1/sub_13.csv,4
461,1.152952,-1.0960355,2.8376827,0.4181806,0.88985515,-0.18525104,1.0740075,-0.8414962,2.048071,1.8131290064175265,9.61836447965155,-2.819637053095026,0,461,13,1,dws_1/sub_13.csv,4
462,1.1498688,-1.0454121,2.8546307,0.4574623,0.8647589,-0.20534137,0.027234077,0.25008944,0.30686727,-1.5383938194205238,1.6618487933089525,-0.5246090047826492,0,462,13,1,dws_1/sub_13.csv,4
463,1.1488388,-1.0467409,2.8353963,0.45671657,0.86608714,-0.20433769,0.12140016,0.064083576,-0.36209717,-2.079218985001742,-3.2714698433953853,-0.20990778110443847,0,463,13,1,dws_1/sub_13.csv,4
464,1.1189251,-1.085143,2.8104515,0.42012095,0.88421667,-0.20427671,0.027431905,-0.25628313,-1.2097347,-2.2274305422876868,-5.293845430080735,-1.5874949254308062,0,464,13,1,dws_1/sub_13.csv,4
465,0.9795172,-1.150299,2.7006273,0.33892855,0.9130087,-0.22697031,-0.15519954,-1.674548,-1.6831001,-1.2064990081909142,-10.592501672078727,-0.45056438560632883,0,465,13,1,dws_1/sub_13.csv,4
466,0.9000764,-1.2180417,2.7119699,0.270824,0.9383539,-0.21465793,-0.9396701,-0.77714,-0.45014727,3.2250177318309596,-2.5495864552300618,-1.2362026163417552,0,466,13,1,dws_1/sub_13.csv,4
467,0.9539343,-1.2178108,2.7677934,0.28179297,0.93831486,-0.2006373,-0.098002516,-1.0016279,0.9640418,5.586069840868276,1.0659740313302952,-8.038369509354144,0,467,13,1,dws_1/sub_13.csv,4
468,1.0339533,-1.1702262,2.9344578,0.33558217,0.92108035,-0.19786641,-0.49475563,0.8525938,1.1457283,0.7839635808961517,-0.810978208157449,-1.06686915015209,0,468,13,1,dws_1/sub_13.csv,4
469,1.2488604,-1.1829108,2.9868245,0.3590351,0.9252534,-0.12146769,-1.2260143,1.3344012,-0.6247494,-6.371216272306898,9.151693323044736,6.184155709136982,0,469,13,1,dws_1/sub_13.csv,4
470,1.2799027,-1.2439529,3.10813,0.30670133,0.94752747,-0.09016864,-0.5687409,-1.9906639,-1.1285179,-4.591396532703288,5.346866813531743,4.074113267404985,0,470,13,1,dws_1/sub_13.csv,4
471,1.3358852,-1.3115284,-2.2302346,0.24998723,0.96621734,-0.062387668,-1.77249,-0.5644879,-0.90986896,1.1293571783047573,3.4098282075760795,4.437313645080895,0,471,13,1,dws_1/sub_13.csv,4
472,1.774642,-1.3258795,-2.8803444,0.2367016,0.97040254,0.0515029,-1.7332699,2.0050886,0.28406066,-1.4424291769080897,-3.8526856725052645,-0.5349124771330721,0,472,13,1,dws_1/sub_13.csv,4
473,2.0337207,-1.3377706,-2.3138814,0.207623,0.972605,0.10167284,-0.020173572,1.3950547,-1.5239416,-4.710454207628228,-1.2819677603567863,-2.2776579241701653,0,473,13,1,dws_1/sub_13.csv,4
474,2.441988,-1.4039053,-2.2609344,0.10532957,0.9865304,0.12927784,-0.68128055,1.6219887,-1.396694,1.8422246165926075,-4.5211399822922465,1.7787668224033801,0,474,13,1,dws_1/sub_13.csv,4
475,2.6323118,-1.3979319,-1.8518339,0.08522503,0.9848109,0.14861839,0.33303964,1.2320893,0.3633171,2.057217680139409,-1.6836627841049179,-0.09642079961025223,0,475,13,1,dws_1/sub_13.csv,4
476,2.5926414,-1.4082123,-2.291461,0.083086774,0.9870753,0.1399561,-0.27210122,0.38531187,-0.07263195,5.110475880477709,1.2452592262268898,3.777530184406998,0,476,13,1,dws_1/sub_13.csv,4
477,2.5613098,-1.372502,-1.810912,0.109586075,0.980205,0.16320036,0.022561952,0.036794186,1.2008051,3.077241173505292,3.9318213132892454,0.1338353337551935,0,477,13,1,dws_1/sub_13.csv,4
478,2.0605109,-1.3598559,-3.2571898,0.18425772,0.9781235,0.100218505,2.1946347,0.7763443,1.6804138,0.6084893404964816,2.359423584202643,0.41677310054232103,0,478,13,1,dws_1/sub_13.csv,4
479,1.595997,-1.3046589,-0.03449166,0.26283807,0.9644696,0.0055732727,1.9098743,0.9505781,1.5667297,-5.911019059177764,2.3091881531193574,0.44515324831383984,0,479,13,1,dws_1/sub_13.csv,4
480,1.3749393,-1.2421196,3.413632,0.31681988,0.94679195,-0.062059358,1.6055747,0.9495369,0.7898409,-1.352055466418048,4.0576841117019145,-0.13503651757399043,0,480,13,1,dws_1/sub_13.csv,4
481,1.2863357,-1.1570579,2.385466,0.3856402,0.9151835,-0.11331335,1.1488247,0.848997,2.1731138,0.8166982875119153,-2.379651801945873,0.9924157121375907,0,481,13,1,dws_1/sub_13.csv,4
482,1.3193787,-1.0367479,2.8725796,0.4933119,0.8613205,-0.12656339,0.19001223,0.060876966,1.9210458,-3.0407953222303,-1.9174245923863762,-0.5420321247673753,0,482,13,1,dws_1/sub_13.csv,4
483,1.2835853,-0.9778838,2.5705352,0.53560185,0.8288363,-0.15815748,0.5759302,-0.9416535,0.63854706,-1.8693065877851598,-5.508519518456879,-0.7984243440987112,0,483,13,1,dws_1/sub_13.csv,4
484,1.2417855,-0.9951637,2.7350628,0.51530135,0.8393351,-0.176225,-0.4962234,0.31851533,-1.6310289,-0.95621806998436,-3.831807602829598,0.7789414582466156,0,484,13,1,dws_1/sub_13.csv,4
485,1.2726156,-1.115703,2.6065378,0.420381,0.8981381,-0.1288187,-0.3364334,0.86512494,-1.85143,4.558590691621301,2.377563455899087,-2.5819306972120173,0,485,13,1,dws_1/sub_13.csv,4
486,1.3194243,-1.1136822,2.6685832,0.42716512,0.89712197,-0.10929251,0.020811692,1.5434518,1.147662,7.427999910613535,2.4996688207332984,-1.1887312454067778,0,486,13,1,dws_1/sub_13.csv,4
487,1.445184,-1.083149,2.6920524,0.4657141,0.8836666,-0.059471443,-0.4323451,0.5542129,-0.036844544,-2.325989648527764,4.4974190880661284,-1.0326061731151057,0,487,13,1,dws_1/sub_13.csv,4
488,1.3322729,-1.1135439,2.6160083,0.42816356,0.89717776,-0.10374057,1.6883594,-0.5224318,-1.2059373,-5.011440981583329,-1.3790986972136716,-3.010445884282826,0,488,13,1,dws_1/sub_13.csv,4
489,1.2066014,-1.1564527,2.3851714,0.37659135,0.91543037,-0.14351958,0.826084,2.9161253,-1.4004468,-4.460713591411986,2.567691502866282,8.839753000062823,0,489,13,1,dws_1/sub_13.csv,4
490,1.2315848,-1.2273033,2.3004367,0.31743944,0.9415545,-0.11169154,-0.030923732,0.8151381,-1.9162966,-0.28430265591735554,4.406066767438879,1.2632156056280404,0,490,13,1,dws_1/sub_13.csv,4
491,1.102351,-1.3282449,2.1101274,0.21440965,0.970728,-0.10902236,0.26794982,2.3592484,-2.2099133,3.1956278953962602,-0.7726865041135642,-0.7926578024713888,0,491,13,1,dws_1/sub_13.csv,4
492,1.0885847,-1.3925674,1.9065481,0.15704474,0.98420715,-0.08158247,0.14006098,3.744051,-1.1059254,-1.6748374966147348,-3.68576154432241,0.38552126064183395,0,492,13,1,dws_1/sub_13.csv,4
493,0.90617126,-1.4353273,1.6176605,0.10604122,0.9908564,-0.08400607,0.38545883,0.77074206,-1.3388579,-0.1467006104341395,-3.1415827994247936,-0.36823637997534947,0,493,13,1,dws_1/sub_13.csv,4
494,0.49229103,-1.4672496,1.1852508,0.048957378,0.9947746,-0.09102924,0.029481858,0.3083298,-0.88325965,1.5985774222945062,-2.7782379828711044,2.8977761325849545,0,494,13,1,dws_1/sub_13.csv,4
495,0.3789357,-1.4713821,1.042418,0.036447912,0.99501586,-0.092429236,0.063511446,0.76397777,0.22502255,1.3371673748630089,-1.2748630463512507,1.9465046605300025,0,495,13,1,dws_1/sub_13.csv,4
496,0.6910336,-1.4425906,1.313967,0.08158286,0.9919903,-0.09877332,0.43739808,0.9041085,1.2171203,-1.538733665063724,2.6845093646031692,-1.2732266618530201,0,496,13,1,dws_1/sub_13.csv,4
497,0.82500744,-1.3616037,1.3858521,0.15236881,0.9780344,-0.14094394,1.3615974,1.7699723,1.225229,-3.0269674553613126,5.209376875259259,-2.1157756078755097,0,497,13,1,dws_1/sub_13.csv,4
498,0.94244814,-1.2735541,1.373579,0.2369464,0.9563478,-0.17239067,0.87953407,3.1683586,1.5513211,0.8062509910569886,0.3305321596383207,-2.3351013188216982,0,498,13,1,dws_1/sub_13.csv,4
499,1.1575854,-1.1806858,1.4369924,0.34840396,0.9246905,-0.15252897,0.24955077,2.680525,1.814329,-0.27900637965726455,0.21252085263751774,-6.968159726319092,0,499,13,1,dws_1/sub_13.csv,4
500,1.3234768,-1.124996,1.5258607,0.41789377,0.9023879,-0.10570898,-0.8063603,0.90711737,0.7945585,0.08582225179104927,-0.4978265602594193,-2.779208701424748,0,500,13,1,dws_1/sub_13.csv,4
501,1.45294,-1.1149021,1.6645467,0.43736967,0.8977998,-0.05164595,-1.312512,-0.4954833,0.15316285,-0.03974785151538366,-3.0114703722177874,-2.04280751894073,0,501,13,1,dws_1/sub_13.csv,4
502,1.5410175,-1.1201975,1.8078297,0.4351924,0.9002713,-0.013078034,-1.1323646,-0.8332664,0.04431586,2.150598238775991,-3.823745486476833,-1.1451580638701333,0,502,13,1,dws_1/sub_13.csv,4
503,1.614747,-1.0877142,1.9204826,0.46411985,0.8855018,0.020437047,-0.9995382,-0.3753806,1.1461881,4.030084724369916,-5.916279909043804,-0.7671679204246259,0,503,13,1,dws_1/sub_13.csv,4
504,1.6621757,-1.0290054,2.0126019,0.513611,0.8569106,0.046796948,-0.88603526,-1.1273412,0.7798496,6.022715623107365,-0.4300843490626113,0.6966313751718983,0,504,13,1,dws_1/sub_13.csv,4
505,1.6374354,-1.0134232,2.0970144,0.5278267,0.8486624,0.03541307,-0.9595069,-2.0960464,-0.089642815,-0.7277823369710981,-0.16198006468756024,-0.15056293797083697,0,505,13,1,dws_1/sub_13.csv,4
506,1.6644278,-1.0188624,2.2038665,0.52198005,0.8515538,0.04855311,-1.4565161,-1.074874,-0.22368306,4.046948490132195,0.5790101322870175,2.391441622789353,0,506,13,1,dws_1/sub_13.csv,4
507,1.7225287,-1.0328807,2.3716755,0.5065243,0.8588696,0.078011796,-1.2295388,-1.4407624,-0.7953409,4.288312732957764,-1.4081562503371994,1.5683288007183642,0,507,13,1,dws_1/sub_13.csv,4
508,1.7193104,-1.085801,2.429378,0.46124882,0.88461405,0.068328485,-0.6547305,-2.6499646,-1.3612063,-0.7671992072220245,7.040008082694877,-0.5918053009471956,0,508,13,1,dws_1/sub_13.csv,4
509,1.6263342,-1.1331089,2.5574913,0.42301247,0.90578943,0.024137363,0.10932562,-1.5985639,-0.6707945,-3.641339694873401,0.5666626780827103,-1.6790170802201583,0,509,13,1,dws_1/sub_13.csv,4
510,1.5947261,-1.169029,2.361877,0.39099976,0.9203321,0.008506343,0.48393112,0.82591057,-0.9476204,-3.955687995103253,-4.212436523777301,3.324817500822965,0,510,13,1,dws_1/sub_13.csv,4
511,1.5626727,-1.2393062,2.6096654,0.32542786,0.9456009,-0.0016739517,-0.7407355,-2.1970456,-1.6536721,-0.8701349995824601,6.726121973911877,1.27989984213511,0,511,13,1,dws_1/sub_13.csv,4
512,1.7041109,-1.3073512,2.4639447,0.25781268,0.9654788,0.033865273,-1.4305124,-0.9907409,-0.98046863,2.961149397448569,-4.537237215851114,0.9330353391208284,0,512,13,1,dws_1/sub_13.csv,4
513,1.8668915,-1.3215237,3.383058,0.23613095,0.9691676,0.07243489,-0.6041747,-0.6970781,-0.40190253,-3.696263434725088,-0.8160979411649546,0.2822507804181088,0,513,13,1,dws_1/sub_13.csv,4
514,2.0292006,-1.3512533,1.1933304,0.19532166,0.9759739,0.09616989,-0.6326233,0.05959016,-1.2192354,-1.7128281142361128,-0.20943542978629948,2.5570819101675255,0,514,13,1,dws_1/sub_13.csv,4
515,2.3184047,-1.3846399,-3.335287,0.13556063,0.9828305,0.12647243,-0.5725934,-0.45544603,-1.09329,1.8028900609852905,-1.264757387037081,1.5137526365700482,0,515,13,1,dws_1/sub_13.csv,4
516,2.543118,-1.3928957,-2.4362454,0.099857375,0.9842292,0.14617632,-0.35772973,-0.2622363,-0.5472874,0.04756218778658714,-1.8730406255758139,2.5515091963841883,0,516,13,1,dws_1/sub_13.csv,4
517,2.610627,-1.3845534,-2.6763635,0.09345737,0.98279303,0.16020565,-0.21409121,0.504181,0.40559405,1.1146104724227666,1.0041378116059727,2.9431028744788605,0,517,13,1,dws_1/sub_13.csv,4
518,2.3678598,-1.3510517,-2.7548594,0.15249693,0.9759685,0.15584217,0.6167052,-0.016164243,1.9195784,-0.5529111956404077,4.517091952630741,2.9049492385438276,0,518,13,1,dws_1/sub_13.csv,4
519,1.8786999,-1.2898676,2.0434747,0.26416916,0.96082854,0.08436601,2.4802022,1.8742473,2.4971845,-3.710512925756609,7.39801190690414,-1.3209373314410746,0,519,13,1,dws_1/sub_13.csv,4
520,1.5352405,-1.2141271,2.6640224,0.34886223,0.9370471,-0.012623407,2.7983232,2.247075,1.224852,-7.878131030824436,5.916061137473212,-1.8104897498820873,0,520,13,1,dws_1/sub_13.csv,4
521,1.3557751,-1.1512264,1.9716136,0.3980292,0.91330236,-0.086762734,2.230494,2.3654547,1.0479634,-0.4568616328888517,0.27094484076481495,1.3184583031110046,0,521,13,1,dws_1/sub_13.csv,4
522,1.2920818,-1.0532205,2.009621,0.47571146,0.868989,-0.13619499,1.7364202,0.6616583,1.7698861,1.7430627457911034,-2.3227589506494364,0.04391624446090635,0,522,13,1,dws_1/sub_13.csv,4
523,1.1725714,-0.95939255,1.7820894,0.52917767,0.81890893,-0.22232945,1.5558337,-1.1889672,0.96067697,-2.8876869319809906,-4.451192617633266,-0.8949383119798263,0,523,13,1,dws_1/sub_13.csv,4
524,1.0752654,-0.9155432,1.7898896,0.5363409,0.79292405,-0.28968388,0.578963,-0.49610385,0.08841005,-0.47041799756043273,-4.182443711160665,-0.08633457585132708,0,524,13,1,dws_1/sub_13.csv,4
525,1.0661832,-0.93063533,1.7482686,0.5230825,0.8020152,-0.28850576,-0.6469905,0.039898306,-0.44040132,1.4987889835911452,-7.071269021491006,-3.399620869512277,0,525,13,1,dws_1/sub_13.csv,4
526,1.1065711,-0.9463577,1.8092768,0.5231412,0.8113519,-0.2614963,-0.13248554,0.19719228,0.4544066,7.405264222397715,-0.3479222145932036,-7.877913606754988,0,526,13,1,dws_1/sub_13.csv,4
527,1.1171178,-0.90705204,1.8203382,0.5542569,0.78785205,-0.26959932,-0.1767921,-0.32879403,0.73203415,3.330667711984512,-0.45045179683721986,-6.084035361212195,0,527,13,1,dws_1/sub_13.csv,4
528,1.1845837,-0.9326471,1.8792634,0.5518135,0.8030173,-0.22424099,-0.9424688,1.421786,-0.8916628,-3.9105022256259625,2.047735856864861,-5.130208674434884,0,528,13,1,dws_1/sub_13.csv,4
529,1.273039,-0.9840742,1.8765883,0.5295013,0.83298874,-0.16228959,0.09569025,1.6295114,-0.9121913,-0.09049508152406127,3.3646047011999993,0.12211283090729928,0,529,13,1,dws_1/sub_13.csv,4
530,1.3521875,-1.054578,1.8655472,0.48171836,0.8694173,-0.10708005,-0.875313,2.0964286,-1.9589099,-4.05103540759486,-1.7319376916633245,4.721691030592497,0,530,13,1,dws_1/sub_13.csv,4
531,1.5948598,-1.1680064,2.012538,0.39208436,0.9203042,0.009788126,-1.702455,1.9041798,-1.9313964,3.3144253722784836,4.465594969743615,2.7246673237267403,0,531,13,1,dws_1/sub_13.csv,4
532,1.834486,-1.2255799,2.2093658,0.32655033,0.9407342,0.087739155,-0.8208995,0.6015116,-0.93806636,2.835090698574685,-1.6929354210764358,0.23483323267407885,0,532,13,1,dws_1/sub_13.csv,4
533,1.9868317,-1.2520005,2.3415222,0.28678793,0.9498345,0.12723501,-0.6561332,0.71695364,-0.7470461,-0.8255655705101583,-2.3750459925373115,1.5914695535565502,0,533,13,1,dws_1/sub_13.csv,4
534,2.1961226,-1.2608458,2.5097454,0.24742667,0.95225126,0.17844214,-0.9591908,1.0111092,-0.5855925,-1.1005341925548464,-1.9160576024364167,1.5439184273684323,0,534,13,1,dws_1/sub_13.csv,4
535,2.422132,-1.2453591,2.717595,0.21058223,0.94763374,0.24091007,-1.2266333,0.24645421,-0.79324245,-0.4308028373295188,-0.40512878753568793,0.23549769348514582,0,535,13,1,dws_1/sub_13.csv,4
536,2.59653,-1.2422447,2.8729496,0.16779333,0.9464392,0.27623516,0.02259399,0.9798833,-0.54116535,1.1403171347537893,-1.8740234283770725,0.32619225199398066,0,536,13,1,dws_1/sub_13.csv,4
537,2.6447368,-1.259977,2.8714094,0.14529201,0.9521921,0.26883417,0.13789545,0.6367022,0.046016164,3.6302110798648277,0.42193009815723526,3.434861432598357,0,537,13,1,dws_1/sub_13.csv,4
538,2.5872948,-1.242538,2.806151,0.17068398,0.9465424,0.275077,0.1986923,-0.09040192,1.2311954,2.5576787089159705,1.6168907635280028,2.405273010069769,0,538,13,1,dws_1/sub_13.csv,4
539,2.2233908,-1.2231977,2.3997734,0.2694769,0.9402953,0.20621456,2.563431,0.95365644,2.6652136,0.8333965447531252,5.222437509044791,-0.16890226914565595,0,539,13,1,dws_1/sub_13.csv,4
540,1.8563464,-1.187874,1.9306364,0.359707,0.92747414,0.105909154,2.3950875,1.561551,1.4942113,-5.928382793140929,8.186072025312447,0.15081091745157388,0,540,13,1,dws_1/sub_13.csv,4
541,1.6322079,-1.1514097,1.6245711,0.40536287,0.9134939,0.024476603,2.2440498,0.7401687,1.1270797,-0.9237549778031177,0.8094118933189963,-1.2669158523341284,0,541,13,1,dws_1/sub_13.csv,4
542,1.4413108,-1.0681336,1.3997085,0.47853893,0.876058,-0.061707154,1.6643264,-0.2161474,1.9740278,2.247681966425765,-0.21351451295385784,0.9353526691127294,0,542,13,1,dws_1/sub_13.csv,4
543,1.3402197,-0.9675796,1.3318928,0.5517823,0.8238824,-0.1298341,0.6813618,-1.2638004,1.4713734,-3.71529790802829,-4.286441317269084,0.42624526508721816,0,543,13,1,dws_1/sub_13.csv,4
544,1.2440197,-0.9201199,1.3056568,0.5739198,0.7952859,-0.19444779,0.4198171,-1.6377805,0.43573734,-2.596061161857979,-4.20399944022753,0.5090604283916889,0,544,13,1,dws_1/sub_13.csv,4
545,1.1810158,-0.9360497,1.3280423,0.5489654,0.8057076,-0.22462656,-1.2822438,-1.1916101,-0.93476355,-0.8901047505362283,-7.883859650237342,-0.07436760083423519,0,545,13,1,dws_1/sub_13.csv,4
546,1.2364762,-1.0465703,1.4092197,0.47319824,0.8655832,-0.16417812,-1.144929,0.012624055,-1.8276385,2.2551356447558875,-1.521582507381838,-5.1736264751479535,0,546,13,1,dws_1/sub_13.csv,4
547,1.1558597,-1.0557281,1.3809549,0.45035017,0.8699555,-0.19888702,0.87275964,-1.7395387,1.057306,6.314977147537471,8.413662907000361,-7.677459395389989,0,547,13,1,dws_1/sub_13.csv,4
548,1.1554257,-1.0092657,1.4018502,0.4869961,0.8467528,-0.21487492,-0.507171,1.1180538,0.10825808,0.29370940527857337,-1.5603461056264438,-0.5141189072017188,0,548,13,1,dws_1/sub_13.csv,4
549,1.2388667,-1.0538275,1.4234382,0.46816406,0.86918616,-0.16025694,-0.3077801,0.80365956,-0.85768145,-2.4046339592444377,3.8743748662661397,-0.4004000417503315,0,549,13,1,dws_1/sub_13.csv,4
550,1.2618089,-1.0917706,1.4212421,0.43806738,0.88754255,-0.14114383,-0.262374,0.5457282,-1.0217524,-1.3551541758724488,-3.7046890986572008,3.626950226820845,0,550,13,1,dws_1/sub_13.csv,4
551,1.2726395,-1.1765147,1.4272108,0.36851317,0.9232444,-0.11193967,-0.95238984,-0.42162165,-1.6637856,-1.2055328399872078,2.0273088063271523,2.857715989204772,0,551,13,1,dws_1/sub_13.csv,4
552,1.4376845,-1.2396697,1.6124264,0.3205675,0.9456934,-0.043568186,-1.7940407,0.3694996,-0.44747698,1.4078497557992382,-0.1861853864992029,0.3755728067880597,0,552,13,1,dws_1/sub_13.csv,4
553,1.6537435,-1.265126,1.8200219,0.3012963,0.9536509,0.025203586,-0.8772851,0.0066547394,-0.5907754,-2.500621300157801,-0.9698670289585822,-0.49435312828732997,0,553,13,1,dws_1/sub_13.csv,4
554,1.8200521,-1.2924683,1.9973961,0.26511744,0.961624,0.06796999,-1.1329707,0.13057253,-0.8246253,-2.085017621238532,-1.4477004042437025,1.187659542221949,0,554,13,1,dws_1/sub_13.csv,4
555,2.1000805,-1.315144,2.292546,0.21933416,0.96741027,0.12744327,-1.223366,-0.5335846,-1.0526199,-0.6408952666662318,-0.8683108137428575,0.04562188969957956,0,555,13,1,dws_1/sub_13.csv,4
556,2.289642,-1.3156517,2.5146284,0.1893125,0.96784186,0.1674229,-0.5476145,-0.17231013,-0.24219802,2.4006167509428082,-1.2867918753724987,-0.9698700563148243,0,556,13,1,dws_1/sub_13.csv,4
557,2.2607555,-1.3146101,2.49609,0.19559577,0.96706533,0.15981312,0.58783805,-0.53304356,0.22167337,1.799251219061946,-0.142400393964793,1.407875692094823,0,557,13,1,dws_1/sub_13.csv,4
558,1.9590547,-1.3160496,2.1901112,0.23395829,0.9682542,0.09745522,2.0694473,0.7844987,1.5623207,2.975999378562915,0.012793553650660705,1.3886966535655998,0,558,13,1,dws_1/sub_13.csv,4
559,1.5131786,-1.2137084,1.6523948,0.34785935,0.93639874,-0.021389678,2.9863057,1.1297301,2.680935,0.6931783298770555,6.5910399651121985,-0.4447848275825121,0,559,13,1,dws_1/sub_13.csv,4
560,1.3527695,-1.1152997,1.4671832,0.43004638,0.8984121,-0.09467581,0.56455815,-0.24245557,1.0594202,-2.335822660117782,5.661419374409944,2.3298995762429104,0,560,13,1,dws_1/sub_13.csv,4
561,1.3346623,-1.050526,1.4793736,0.4829676,0.8673334,-0.11672707,0.17951913,-1.1846445,1.7701818,5.338017424441235,0.6444638861751162,-2.1821027321153026,0,561,13,1,dws_1/sub_13.csv,4
562,1.2598301,-0.9549447,1.5302415,0.5503605,0.8166949,-0.17617844,-0.37581646,-3.0873473,1.8364714,-1.1137453907809427,-0.9477274535640187,2.1262987962598086,0,562,13,1,dws_1/sub_13.csv,4
563,1.1716475,-0.90885067,1.6124085,0.56586665,0.78845716,-0.23953256,-0.6153554,-2.9315298,0.6907344,-4.131408324562663,-5.969757613387141,1.2472337483537375,0,563,13,1,dws_1/sub_13.csv,4
564,1.0839944,-0.91787195,1.6704106,0.53760946,0.79472643,-0.2833824,-1.0829755,-2.2839386,-0.31478944,-1.2178078220671116,-3.45141805764211,0.39251262029246553,0,564,13,1,dws_1/sub_13.csv,4
565,1.0830089,-1.0018672,1.7601318,0.47554058,0.84214824,-0.25320387,-1.9363,-1.0492948,-1.4311237,-0.3449552926975981,-1.463641897712497,-1.5492462363106214,0,565,13,1,dws_1/sub_13.csv,4
566,1.0540804,-1.0731456,1.8124115,0.41481632,0.8789596,-0.2352856,-0.26492417,-1.895113,-0.2549361,5.923298043008124,2.9459348188255823,-4.286610338781548,0,566,13,1,dws_1/sub_13.csv,4
567,1.0282584,-1.0491996,1.8558563,0.42748985,0.866941,-0.25726122,-0.6704196,-0.33734486,0.98957205,2.336529252805434,-3.043555199808266,2.0796972309562247,0,567,13,1,dws_1/sub_13.csv,4
568,1.1893208,-1.0639194,2.0377803,0.4503547,0.8742999,-0.18069446,-1.9821883,-0.34141713,0.00021831691,-2.3156018662064026,7.019577422584792,-1.1013351819524495,0,568,13,1,dws_1/sub_13.csv,4
569,1.1491822,-1.1011842,2.090723,0.4122971,0.89172846,-0.18530706,0.3613649,-2.8000586,-0.85324943,-0.5902017652870586,1.4208792885502382,-2.8542111758664217,0,569,13,1,dws_1/sub_13.csv,4
570,0.9316652,-1.1404823,2.0200481,0.33614108,0.90887725,-0.24876851,-0.7476762,-2.7894714,-0.8012349,-1.7946227839723832,0.22806464231598725,6.793727525486563,0,570,13,1,dws_1/sub_13.csv,4
571,0.9912612,-1.2052488,2.180933,0.29776117,0.933914,-0.19581491,-2.0296195,-1.1266763,-0.12095354,-0.18917805364567467,1.714736194351391,0.971119128509412,0,571,13,1,dws_1/sub_13.csv,4
572,1.0866909,-1.2584919,2.342932,0.27273598,0.95168734,-0.14289667,-1.0158378,-1.2212123,-0.6162204,-3.3828963184244984,-1.0517669960207225,-0.6445675942381865,0,572,13,1,dws_1/sub_13.csv,4
573,1.098201,-1.299415,2.3872342,0.23823737,0.9633858,-0.12209116,-0.22666821,0.019169956,-0.46100807,-0.6728795529357178,-1.751558588430291,-1.4117063830355376,0,573,13,1,dws_1/sub_13.csv,4
574,1.0632101,-1.308248,2.352343,0.22702107,0.96582633,-0.12616554,0.099226475,-0.42499563,-0.10893839,-2.1234853155103006,-5.791003195234727,2.0862744446864236,0,574,13,1,dws_1/sub_13.csv,4
575,1.0484147,-1.3045526,2.368256,0.22784656,0.96466094,-0.13116856,0.09874135,-0.40559384,0.36345538,-0.05806190504307492,-6.109063065913773,-0.8367331688914479,0,575,13,1,dws_1/sub_13.csv,4
576,1.020779,-1.2683562,2.3468819,0.25388893,0.9547759,-0.15588823,0.56594986,-0.03444609,0.54243904,-0.5741847846644231,-2.457513686430674,0.7778420003079021,0,576,13,1,dws_1/sub_13.csv,4
577,1.0289454,-1.2490046,2.3467126,0.27076328,0.94841415,-0.1629715,0.02813837,0.546111,0.30134302,-1.3974729391017362,0.6962371491217204,3.4344165446646713,0,577,13,1,dws_1/sub_13.csv,4
578,1.0674045,-1.1820173,2.3423746,0.3322463,0.9256826,-0.18310136,1.4522215,0.6906886,2.1696253,3.115159535920248,-0.4036241643950062,-1.508601798202505,0,578,13,1,dws_1/sub_13.csv,4
579,1.0252033,-1.0005628,2.326038,0.4613983,0.84153914,-0.27960345,1.8836361,-1.6145108,3.3062992,6.589601192138066,14.535360098879968,-0.9645059873794568,0,579,13,1,dws_1/sub_13.csv,4
580,0.95467377,-0.86927664,2.3497386,0.5266603,0.7639832,-0.37345758,0.49560475,-1.300212,1.412297,-3.0396281205348323,3.8062386555466383,-1.552719041814076,0,580,13,1,dws_1/sub_13.csv,4
581,0.97835535,-0.85577285,2.3950686,0.54395634,0.7550945,-0.36556667,-0.86108685,0.45509312,0.013521746,-1.4145124039297536,-3.2420435248955104,-2.231105131510455,0,581,13,1,dws_1/sub_13.csv,4
582,1.0138378,-0.9108945,2.424882,0.52035534,0.7900321,-0.32459462,-0.7748153,-0.20791735,-1.4101908,-0.7171436069487258,-5.452413641768792,-1.103267477649629,0,582,13,1,dws_1/sub_13.csv,4
583,0.94341195,-1.0224317,2.385199,0.4221713,0.8534596,-0.30557877,-1.1920502,-1.0196598,-2.4541876,-1.7024281118181328,-1.499350371266639,-0.6065341803919789,0,583,13,1,dws_1/sub_13.csv,4
584,0.8843397,-1.1574568,2.376758,0.3105129,0.91571724,-0.2547353,-1.6294173,-1.0738919,-1.7095923,0.22014988462534074,1.031726880308297,-1.796771018239893,0,584,13,1,dws_1/sub_13.csv,4
585,0.8606655,-1.2257035,2.4152365,0.2565505,0.9411194,-0.22071041,-0.5968213,-1.2555575,-0.23151037,-0.6876077064207667,-2.6609575132198895,-1.2639563716840472,0,585,13,1,dws_1/sub_13.csv,4
586,0.839098,-1.2294424,2.4650052,0.24909523,0.94226784,-0.22317418,-0.26398686,-1.5695559,0.33954495,0.20523519221999306,-13.255657833188515,0.7864060114444783,0,586,13,1,dws_1/sub_13.csv,4
587,0.8727087,-1.2274666,2.584671,0.25778612,0.94171315,-0.21718687,-0.80099994,-1.1366546,0.8699409,-3.3000356478975745,-2.650603344277037,0.5275664569534823,0,587,13,1,dws_1/sub_13.csv,4
588,1.0311595,-1.1833559,2.734758,0.3241907,0.92576736,-0.19333136,0.20570867,1.2065613,1.5586509,4.83404871719791,13.136031344833986,3.195712744827925,0,588,13,1,dws_1/sub_13.csv,4
589,1.0611359,-1.1385206,2.7534618,0.365674,0.90805876,-0.20457006,0.016283393,-0.6500394,0.08121404,2.9722886177653765,1.1341036536053868,-0.7218245739796189,0,589,13,1,dws_1/sub_13.csv,4
590,1.0853599,-1.1636697,2.7815404,0.35005754,0.9183334,-0.18479045,-0.41526616,0.93854177,-0.34156498,-1.8190483220235936,1.8066209033194258,4.135477941315337,0,590,13,1,dws_1/sub_13.csv,4
591,1.1115317,-1.1664159,2.7559514,0.3525978,0.91921103,-0.17440608,0.47634816,0.38330343,0.03271253,2.635904342836494,-0.44536816481774194,0.01794008607873877,0,591,13,1,dws_1/sub_13.csv,4
592,1.0551215,-1.1206751,2.7004557,0.37883016,0.9005939,-0.21440531,1.3590342,-0.00056651235,1.3042274,0.48163248867823844,3.2445576392743605,0.7913000716672268,0,592,13,1,dws_1/sub_13.csv,4
593,1.0147581,-0.98339444,2.6368878,0.47027516,0.8322105,-0.29270732,1.9224383,0.2343041,2.2559454,2.3857312977978227,11.322283692873432,-2.414892190680192,0,593,13,1,dws_1/sub_13.csv,4
594,1.011851,-0.8922366,2.6410358,0.53234804,0.77862066,-0.33290994,0.11753139,-0.20541772,0.836827,-0.0116564333423951,6.717179478779804,-1.7314900014061936,0,594,13,1,dws_1/sub_13.csv,4
595,1.0131834,-0.8937374,2.6586795,0.53172374,0.77935266,-0.33106786,-0.38968492,-0.29634842,-0.3859903,-1.9487460119249091,-6.6377016175903005,-0.22267429052076385,0,595,13,1,dws_1/sub_13.csv,4
596,1.0154555,-0.9561515,2.6673412,0.48963886,0.81708145,-0.30490947,-0.9786442,0.11598554,-1.6610265,-3.4362098131826397,-6.62946310314722,0.11288603229411774,0,596,13,1,dws_1/sub_13.csv,4
597,0.9809372,-1.0868678,2.6371675,0.38714117,0.88508296,-0.25773907,-1.3740089,-0.67222,-2.5905218,-0.2129103641260545,0.009796782441347296,-0.4367259296443482,0,597,13,1,dws_1/sub_13.csv,4
598,0.9576925,-1.2035886,2.6683884,0.2930671,0.93345255,-0.20733711,-1.3326709,-0.9993746,-0.91411924,0.7270548295434709,2.201473796477568,-0.9304277752041281,0,598,13,1,dws_1/sub_13.csv,4
599,0.9957354,-1.2297581,2.7310047,0.28102016,0.94233745,-0.18152043,-0.20055632,0.043560475,0.12813805,-2.9111147821103116,-4.02397691732862,-1.3621842179584076,0,599,13,1,dws_1/sub_13.csv,4
600,1.0161352,-1.2318388,2.7425668,0.28231138,0.94316155,-0.17532896,-0.091799766,0.012457073,-0.14754659,-0.16686812586176358,-5.485767148405938,0.7355713606748231,0,600,13,1,dws_1/sub_13.csv,4
601,1.0129128,-1.2436929,2.7855513,0.27286237,0.94693357,-0.17002128,-0.7928924,-1.6184905,0.16269132,-1.9823155462189586,-13.066345034199905,1.4706561155639097,0,601,13,1,dws_1/sub_13.csv,4
602,1.1326973,-1.2505203,2.9737394,0.28482875,0.9491925,-0.13336006,-0.8991032,-0.09291774,0.67200637,0.1449432275652771,9.29222826636555,2.4839577890923965,0,602,13,1,dws_1/sub_13.csv,4
603,1.2000914,-1.2029078,2.9779596,0.33516002,0.9330849,-0.1306832,1.2379537,1.5371068,0.9703104,2.5218729202426675,1.8833343379155714,-0.3060713601070851,0,603,13,1,dws_1/sub_13.csv,4
604,1.1833936,-1.1773466,2.9345236,0.35488948,0.9234136,-0.14469068,-0.56582284,-0.23253177,-0.3719859,0.35202124961241776,1.9808734674683601,4.458239590708972,0,604,13,1,dws_1/sub_13.csv,4
605,1.274708,-1.2060548,2.998945,0.341712,0.93474394,-0.10362138,0.18964846,1.6001352,0.42472047,1.6363264769540078,1.121343370717053,-0.46845324278690237,0,605,13,1,dws_1/sub_13.csv,4
606,1.215587,-1.0689583,2.862504,0.450181,0.8760089,-0.16784261,2.9438348,0.26483408,3.266886,1.7095054393773217,4.621712914278636,-2.959637363754519,0,606,13,1,dws_1/sub_13.csv,4
607,1.0910559,-0.89600563,2.7514696,0.5549754,0.7814375,-0.2881015,1.7173393,-0.46912822,1.7338796,-0.0361220507701828,10.668584688444556,3.10082591932979,0,607,13,1,dws_1/sub_13.csv,4
608,1.1029063,-0.8556609,2.730309,0.5847033,0.75462973,-0.29557818,-0.13779075,1.0291303,-0.2123152,-0.736393249274297,2.922632453364927,-2.2272893227977058,0,608,13,1,dws_1/sub_13.csv,4
609,1.1353652,-0.9142728,2.7425878,0.5537661,0.7923954,-0.2578743,-0.86798584,-0.08113241,-1.6145073,-0.4055134489872145,-6.366306738359585,-0.7699456294637274,0,609,13,1,dws_1/sub_13.csv,4
610,1.1054401,-1.0326725,2.7228322,0.45780176,0.8585438,-0.22949469,-0.83856946,-0.36765945,-2.5672984,-3.963073428286603,-8.159059278350169,-0.4276915001830719,0,610,13,1,dws_1/sub_13.csv,4
611,1.049957,-1.1613592,2.7085166,0.34549862,0.9173824,-0.19844735,-1.2345071,-1.3917831,-1.9118537,-1.3591128542333895,-2.3326546394636045,-1.3271383019347731,0,611,13,1,dws_1/sub_13.csv,4
612,0.9649025,-1.235134,2.7067251,0.27033442,0.9442508,-0.1875713,-0.16900773,-1.5085126,-0.7273225,1.1201095631599178,-2.293342275905249,-2.0622905675498813,0,612,13,1,dws_1/sub_13.csv,4
613,0.93281734,-1.2241104,2.7075295,0.27334607,0.94045013,-0.20193467,-0.12421926,-0.011328608,0.94323313,-1.566119694820085,-10.52263841879927,1.460803244215093,0,613,13,1,dws_1/sub_13.csv,4
614,1.1325272,-1.2028043,2.9143968,0.32552445,0.9331596,-0.15321127,-1.4068753,0.137947,0.8376756,-0.06395489203463711,8.8319769415272,3.2334200020113775,0,614,13,1,dws_1/sub_13.csv,4
615,1.2436894,-1.1719317,3.0285587,0.36768347,0.92127645,-0.12459149,0.347296,-0.03967482,1.2439482,7.972591505215949,5.293900455168325,0.7662894092786217,0,615,13,1,dws_1/sub_13.csv,4
616,1.1967101,-1.1145052,3.0037496,0.41073835,0.8980555,-0.16051663,0.0446506,-0.82956374,0.22861922,-2.3396857432752234,4.537256155370093,2.023214778820075,0,616,13,1,dws_1/sub_13.csv,4
617,1.2522101,-1.1736677,3.079143,0.3664572,0.9218653,-0.12192007,-1.2957232,0.42486086,-1.2232748,0.26362806116999976,0.9780814069646472,1.5166506598990248,0,617,13,1,dws_1/sub_13.csv,4
618,1.2987528,-1.1950716,3.0916247,0.35387543,0.93039894,-0.098172866,0.77290416,0.56840634,0.30531392,0.2518156961558531,-6.649812147813233,-3.9328983607156447,0,618,13,1,dws_1/sub_13.csv,4
619,1.2083566,-1.1654027,2.9644084,0.36860886,0.91887516,-0.14004675,1.0300634,0.8000902,0.090532586,-4.175412270349222,-3.7673434983115817,-0.7074288479304657,0,619,13,1,dws_1/sub_13.csv,4
620,1.1577829,-1.1295313,2.8458915,0.3912935,0.9043157,-0.17112797,1.5826488,1.1529944,0.68088573,1.5836127585302513,-2.6300726547461415,0.3097888397063049,0,620,13,1,dws_1/sub_13.csv,4
621,1.0830232,-1.0238906,2.7245352,0.45937115,0.854049,-0.24396944,1.8238411,0.36141726,1.9882466,5.71520129965672,13.245962383891289,-0.6030163151847269,0,621,13,1,dws_1/sub_13.csv,4
622,1.1283282,-0.9125337,2.7397203,0.5527085,0.7911347,-0.2617031,0.14974035,1.011294,1.6248155,2.4216715961110076,8.064034058263594,-5.050311896982897,0,622,13,1,dws_1/sub_13.csv,4
623,1.1796004,-0.88875693,2.7662091,0.58283865,0.77630454,-0.24062687,-0.21276937,-0.12287864,-0.13127518,0.359212286494832,-3.974134584529488,-0.6386801593583278,0,623,13,1,dws_1/sub_13.csv,4
624,1.1778556,-0.9197809,2.7801254,0.5598205,0.79548377,-0.2317298,-0.47386295,0.24639115,-0.83945894,-3.213138224503765,-6.1972393513695145,-1.6983150524149833,0,624,13,1,dws_1/sub_13.csv,4
625,1.1896456,-0.9965655,2.7618656,0.5041492,0.8396365,-0.20241958,-0.38448286,-0.109675765,-2.0345016,-3.9424390642837306,-5.693189350890535,-2.1442374987593302,0,625,13,1,dws_1/sub_13.csv,4
626,1.1064665,-1.1123998,2.724664,0.39583313,0.8967983,-0.1980179,-0.5920037,-0.75402784,-2.2504375,1.2124306874508584,-4.2871843840440516,-1.7219009872695055,0,626,13,1,dws_1/sub_13.csv,4
627,1.0576402,-1.2013512,2.6359472,0.31425792,0.9324146,-0.17704421,-0.112192556,0.5568042,-1.4245348,0.1389834865522772,-3.3280227300777794,-5.75857821984902,0,627,13,1,dws_1/sub_13.csv,4
628,1.0151238,-1.2316109,2.6440005,0.28317142,0.9432387,-0.17626077,-0.22991842,-0.8995353,0.23237947,0.8614847779682585,-6.686928342099597,-0.5258086887313536,0,628,13,1,dws_1/sub_13.csv,4
629,1.1647624,-1.2082369,2.7352867,0.32475004,0.9347116,-0.1389928,-0.99705094,1.5192245,0.9952408,-0.47949268244565985,4.232835846660266,0.846915187493571,0,629,13,1,dws_1/sub_13.csv,4
630,1.3249645,-1.1869242,2.922314,0.36463585,0.9275703,-0.091937445,0.01967971,0.16930285,0.5588715,4.562826744877539,10.52888601579571,-2.988704208402088,0,630,13,1,dws_1/sub_13.csv,4
631,1.2465484,-1.1519597,2.755546,0.3842781,0.9131112,-0.12852794,0.40438944,-0.75385857,0.27266413,1.349087228595543,3.9547133861980606,0.8374361178313237,0,631,13,1,dws_1/sub_13.csv,4
632,1.261758,-1.1841187,3.0246346,0.36143383,0.9270605,-0.115943,-1.1298594,-0.95282555,-0.8579287,-0.28723027485666797,4.443240193132737,-0.36691849244492764,0,632,13,1,dws_1/sub_13.csv,4
633,1.2466536,-1.2054864,2.1854868,0.32548466,0.92843175,-0.11053061,-0.50652325,-0.6590458,-0.139819,0.88961751234985,-1.4752550264166202,-0.7364154969327952,0,633,13,1,dws_1/sub_13.csv,4
0,-2.220685,-1.0372431,2.3795617,-0.37004513,0.85491896,0.32155776,0.36610594,-0.112817764,0.41229707,0.13299382429692325,-3.317579750736833,-6.3525245448435355,0,0,13,11,dws_11/sub_13.csv,4
1,-2.413272,-1.0379844,2.9578552,-0.34807774,0.8623808,0.37653884,1.6569467,-0.98389435,0.99327856,0.3357512782772365,0.9830648578542901,-3.4941641190395187,0,1,13,11,dws_11/sub_13.csv,4
2,-2.334771,-1.1400726,2.8581612,-0.29821545,0.90877545,0.28943342,1.2997129,-0.2622317,0.3603251,-1.6554424287065548,2.3403479108603302,2.214517329031165,0,2,13,11,dws_11/sub_13.csv,4
