level_0,attitude.roll,attitude.pitch,attitude.yaw,gravity.x,gravity.y,gravity.z,gyro-x,gyro-y,gyro-z,accel-x,accel-y,accel-z,activity code,index,user,serial,csv,standard activity code
0,-2.243093,-1.0053099,0.43978637,-0.35159445,0.8299535,0.3745681,2.026641,-1.1212566,0.37006843,0.6420686525182671,-4.8781736213705305,4.577477442222846,0,0,24,1,dws_1/sub_24.csv,4
1,-2.389715,-1.0346293,0.50631875,-0.36453098,0.8611591,0.36376584,4.2350755,-1.8362744,2.0475388,-4.111211955205953,-7.9974992608810815,4.854183651954096,0,1,24,1,dws_1/sub_24.csv,4
2,-2.3081963,-1.2675518,0.6613579,-0.21734686,0.95688766,0.20356299,2.092189,-1.9502864,1.0562199,-2.1004312751173915,9.264369731793813,9.705247996752448,0,2,24,1,dws_1/sub_24.csv,4
3,-2.2915945,-1.2251778,0.76943725,-0.25630507,0.9395146,0.22260529,-0.5109714,-0.5411383,-1.404889,0.5619577935661613,-5.927180691615682,-2.981444322670145,0,3,24,1,dws_1/sub_24.csv,4
4,-2.2727394,-1.2678754,0.7804431,-0.22650672,0.95487857,0.1916537,1.149226,0.073182434,1.9010758,9.71829502445931,1.8333842990915465,0.018315593357098987,0,4,24,1,dws_1/sub_24.csv,4
5,-2.387057,-1.3100619,0.6999394,-0.17738432,0.965591,0.18735343,-0.5318892,-0.05565855,-0.26675713,-14.110931857234878,21.56349735667126,10.631411555305261,0,5,24,1,dws_1/sub_24.csv,4
6,-2.2856164,-1.3037008,0.75204206,-0.19734009,0.96482134,0.17366612,1.344048,1.0559978,0.42996764,0.37579615406979366,-11.209629730650823,-7.975334144656985,0,6,24,1,dws_1/sub_24.csv,4
7,-1.9706825,-1.4154336,1.0876911,-0.14388508,0.9881751,0.059637114,2.4136794,-0.9410734,0.9644469,0.0645558792246433,1.5189828391781433,2.634876584189331,0,7,24,1,dws_1/sub_24.csv,4
8,-1.4191606,-1.4310478,1.6609869,-0.13723674,0.9900114,-0.019973248,1.2296605,0.22811133,-0.22313517,-5.675025542587074,-3.4489138611080006,0.9650623290657336,0,8,24,1,dws_1/sub_24.csv,4
9,-1.0077218,-1.4311483,2.066373,-0.11715586,0.9905355,-0.07593261,0.8854498,0.19499725,0.9391912,5.679990577094517,-0.10253783905448068,7.981112737302009,0,9,24,1,dws_1/sub_24.csv,4
10,-0.6923461,-1.4558191,2.3534644,-0.07565831,0.9932056,-0.089085326,-0.43407136,0.7048418,0.3226455,-1.8126313560213958,0.5891134176442007,0.5571905703937102,0,10,24,1,dws_1/sub_24.csv,4
11,-1.3565032,-1.4642534,1.7271216,-0.09989256,0.9945503,-0.019967616,-1.9799116,-2.4653974,-0.9863757,-10.791944049987967,1.90896571511837,3.134585445825009,0,11,24,1,dws_1/sub_24.csv,4
12,-2.2577524,-1.3848846,1.0009804,-0.14882718,0.9826641,0.11450661,-2.2795212,-3.8647926,-1.1880252,-1.0968255997843603,6.9296366930512034,-6.657102214099988,0,12,24,1,dws_1/sub_24.csv,4
13,-2.45821,-1.2529439,0.95829034,-0.19148365,0.94997996,0.24498114,-1.9811487,-2.5754318,-1.8787279,1.955322922474209,3.452161540285259,-3.3925889436698786,0,13,24,1,dws_1/sub_24.csv,4
14,-2.508267,-1.1293938,1.0295123,-0.2577459,0.9041173,0.34192497,-1.1159039,-2.3481283,-2.0668993,-3.7120604552671383,0.21829995852294676,0.08432957047804207,0,14,24,1,dws_1/sub_24.csv,4
15,-2.5524805,-1.0508428,1.1381807,-0.27224872,0.8678548,0.4148054,-0.58331203,-3.2086809,-1.2144817,0.9169384205201336,-2.9089507215706063,-1.3434909469409786,0,15,24,1,dws_1/sub_24.csv,4
16,-2.6606202,-1.0075967,1.197154,-0.24982522,0.8456499,0.47243124,-0.15386578,-2.944265,-1.0312599,1.8476381464710476,-6.543286015965897,-1.8000077441599223,0,16,24,1,dws_1/sub_24.csv,4
17,-2.7257214,-0.9982417,1.2732636,-0.2170104,0.84042513,0.49602628,0.3478273,-2.3136303,-0.41137362,1.2360182828578765,-4.383031765022339,-1.3142551020856017,0,17,24,1,dws_1/sub_24.csv,4
18,-2.7996607,-1.0194689,1.2950315,-0.17713922,0.852114,0.4933923,0.75910336,-1.4208829,0.00019662082,2.2187091559690617,-2.396129509150883,-0.5358935320531172,0,18,24,1,dws_1/sub_24.csv,4
19,-2.8234606,-1.0894632,1.3399454,-0.14425588,0.8861562,0.4396865,1.9144156,-1.3752754,0.13994841,4.203711460931125,-2.7577390762210006,2.3076451283195025,0,19,24,1,dws_1/sub_24.csv,4
20,-2.9017477,-1.1605976,1.3580339,-0.09524148,0.91724986,0.3873754,0.69732445,-2.3831673,0.29024315,-2.2056604098340187,4.210192506620641,8.875937931873855,0,20,24,1,dws_1/sub_24.csv,4
21,-3.0613277,-1.1733943,1.3610263,-0.031634927,0.92197067,0.38590133,0.21909875,-3.7733412,-0.4204464,-3.423404111551592,1.3493222649908017,9.737517488100126,0,21,24,1,dws_1/sub_24.csv,4
22,-3.0131326,-1.186243,1.5539742,-0.048533678,0.92707515,0.3719302,0.5294571,-0.64796185,-1.9924475,2.467073147878436,-4.12095809663196,0.9494125356752556,0,22,24,1,dws_1/sub_24.csv,4
23,-2.7975316,-1.2007256,1.7192457,-0.122604854,0.93223286,0.34033063,0.4517243,1.2037044,-0.088076144,2.517089526040211,1.4364993249980713,-2.4874425442413184,0,23,24,1,dws_1/sub_24.csv,4
24,-2.880805,-1.2087793,1.7058744,-0.09034328,0.93523353,0.34179994,-0.091837406,-2.7422495,-0.09058344,-1.669963997586107,10.30833898910981,6.279691960960014,0,24,24,1,dws_1/sub_24.csv,4
25,-2.905825,-1.2441769,1.7426682,-0.07678656,0.94698656,0.31176442,1.7190442,-0.2682616,0.1496192,3.0439595228155296,-10.451796055395498,-11.954499370029199,0,25,24,1,dws_1/sub_24.csv,4
26,-2.939355,-1.354665,1.7844241,-0.041999295,0.97699445,0.21034569,1.9915171,-2.1734526,0.22033475,-5.307227568505224,-0.5176888060035044,-2.7431934028042084,0,26,24,1,dws_1/sub_24.csv,4
27,-2.8602777,-1.4180229,1.944799,-0.04352799,0.98818576,0.14557612,1.1026182,-1.8329012,-0.6458754,1.4254123784999324,4.421736161944093,-0.4819360065314706,0,27,24,1,dws_1/sub_24.csv,4
28,-2.705441,-1.4612927,2.188054,-0.044710234,0.99416536,0.10020353,0.77070534,0.26535165,0.2843461,6.862563607760083,-2.604350211918512,0.6680845820593736,0,28,24,1,dws_1/sub_24.csv,4
29,-2.7271345,-1.4946634,2.0594282,-0.03298001,0.9971063,0.06786138,0.63965464,0.5742433,0.26578742,-1.863719916074327,-0.4731822314540483,-2.4502952002415843,0,29,24,1,dws_1/sub_24.csv,4
30,-2.379809,-1.5404508,2.4532511,-0.018153459,0.99963087,0.024738356,1.0297164,-1.2573788,0.21157219,-2.613155385205171,-0.8050834676131146,-2.0598935964456913,0,30,24,1,dws_1/sub_24.csv,4
31,-0.72165096,-1.5392065,-1.2592561,-0.019950062,0.99958676,-0.02720578,1.073608,-0.817874,-0.17484826,0.4304992952875636,-0.14362104720627147,-0.9265785032273952,0,31,24,1,dws_1/sub_24.csv,4
32,-0.22277808,-1.4832675,-1.8654647,-0.021734625,0.9962256,-0.08432625,1.2029622,-0.032614738,0.1762671,5.136046589414891,-1.415354324990385,-2.226853050492398,0,32,24,1,dws_1/sub_24.csv,4
33,-0.06367779,-1.4374846,-1.2368267,-0.004568562,0.99130803,-0.13408332,0.67711574,1.5343945,0.2192124,1.0436049818002158,2.1097516510173957,1.1535416513772523,0,33,24,1,dws_1/sub_24.csv,4
34,0.16263199,-1.4278946,-1.5772884,0.01692228,0.9895953,-0.14170046,-0.18225008,1.9807162,0.14239572,1.2845333961906023,0.15950122419480275,-1.2908320319481907,0,34,24,1,dws_1/sub_24.csv,4
35,0.18754315,-1.4409703,-1.0149429,0.03241287,0.9920501,-0.12553371,-0.31710765,-0.06894365,0.14122711,-1.5578878580325888,0.08319325841144759,-1.1699158939826977,0,35,24,1,dws_1/sub_24.csv,4
36,0.2826035,-1.4706619,-1.8342009,0.016857073,0.9941829,-0.101649866,-0.8863854,-1.1839736,-0.5852166,-7.259220434071548,5.1202391251142725,0.7045013235283074,0,36,24,1,dws_1/sub_24.csv,4
37,-1.4399688,-1.5222335,0.29530832,-0.035641596,1.0000863,0.0011350363,-3.1436186,-1.9533463,-1.1851877,-5.401287890918029,4.124250868452191,1.919223535164817,0,37,24,1,dws_1/sub_24.csv,4
38,-2.8664162,-1.3515606,2.6842651,-0.087503076,0.9746381,0.20225434,-3.9978702,-2.0717866,-1.355706,9.02826486773068,7.649312626283576,-1.331237303282446,0,38,24,1,dws_1/sub_24.csv,4
39,-2.6386595,-1.171663,2.0867286,-0.16193801,0.9225982,0.35219246,-2.300123,0.29090226,-2.2872665,1.8742624663097607,2.085635704755763,-5.521572246816317,0,39,24,1,dws_1/sub_24.csv,4
40,-2.5875049,-1.0108764,2.578542,-0.29949853,0.8462645,0.43921822,-2.3082008,0.701515,-2.7906337,-6.178356289223999,0.520202118123523,0.4078714152473456,0,40,24,1,dws_1/sub_24.csv,4
41,-2.506489,-0.86683106,2.4261684,-0.36912435,0.76329803,0.5314476,-1.2169092,-2.2745275,-1.7766168,-1.3510403086018992,-1.1949634073063928,-0.9794349123851608,0,41,24,1,dws_1/sub_24.csv,4
42,-2.6412091,-0.8164102,2.6341121,-0.3402476,0.7280282,0.5946027,0.1525447,-2.449875,-1.0388265,2.4525712067465357,-8.231030546075194,-1.9475981256391317,0,42,24,1,dws_1/sub_24.csv,4
43,-2.6320386,-0.8325149,2.6164887,-0.32171872,0.7403595,0.5912406,1.3755374,-0.7364656,-0.2578503,1.8530373760056886,-8.624019354364345,-0.23281040144322343,0,43,24,1,dws_1/sub_24.csv,4
44,-2.6107655,-0.9424402,2.7268255,-0.30210733,0.8085104,0.5043871,2.717669,0.65702385,1.0745353,6.7786105588159975,-11.426233130429832,0.8684487371033223,0,44,24,1,dws_1/sub_24.csv,4
45,-2.5590632,-1.0773249,2.7032726,-0.25906378,0.88112116,0.39668304,1.8603668,-0.3803475,1.2111323,-1.135610088920217,0.797753045221158,2.3461340646271918,0,45,24,1,dws_1/sub_24.csv,4
46,-2.6270607,-1.157779,2.7368374,-0.19905959,0.915644,0.34893972,1.1142223,-0.5832552,0.60995334,-4.378445054813144,3.716713583864536,2.2436226171765754,0,46,24,1,dws_1/sub_24.csv,4
47,-2.5351548,-1.2112154,2.745136,-0.20007692,0.9362512,0.2890857,1.2287393,0.31047833,-0.14434375,3.3633726530844252,-6.499647727784569,-1.4947720670091054,0,47,24,1,dws_1/sub_24.csv,4
48,-2.5290663,-1.2529223,2.8890166,-0.17985477,0.9498497,0.2556187,0.4231236,-0.90521973,0.4669506,1.7260298464771442,7.375442746111414,3.869432315324143,0,48,24,1,dws_1/sub_24.csv,4
49,-2.495127,-1.2457744,2.7940514,-0.19246185,0.94759285,0.25439867,0.120728336,-0.8737124,-1.2959358,1.7101901508123203,8.407399093408191,-2.1126583405596624,0,49,24,1,dws_1/sub_24.csv,4
50,-2.4422624,-1.2313138,3.150749,-0.2143321,0.94290495,0.25504056,-0.003300272,0.21771461,0.48806924,-1.3332524213813732,-1.6728147045994117,2.6075146913363874,0,50,24,1,dws_1/sub_24.csv,4
51,-2.4880738,-1.2463363,2.616753,-0.19397366,0.9478691,0.25313607,-0.016623542,0.40088117,-0.051001295,-2.7904218696636414,3.779649257283265,-2.0189130068901733,0,51,24,1,dws_1/sub_24.csv,4
52,-2.3779187,-1.2550151,3.568284,-0.21448511,0.95052373,0.22452627,1.0788338,0.56634855,0.024517104,-0.947713345239577,-3.5971275063637007,-1.773183987400838,0,52,24,1,dws_1/sub_24.csv,4
53,-2.222356,-1.319113,0.027891874,-0.19842848,0.9687217,0.15069312,1.503942,-0.200243,0.26108402,-3.439561651609985,1.3809234395992762,-0.2795680109738973,0,53,24,1,dws_1/sub_24.csv,4
54,-2.045016,-1.3439804,-3.5691977,-0.19991833,0.97427034,0.10297408,0.67872596,-0.30035418,-0.05686885,1.228711606663661,-2.1117985552386696,0.41452756316274963,0,54,24,1,dws_1/sub_24.csv,4
55,-2.037069,-1.3659558,-2.581872,-0.18195295,0.9792726,0.09107969,-0.10144971,0.292544,0.5872661,2.426747513489005,-1.118536705356416,2.4660556992249507,0,55,24,1,dws_1/sub_24.csv,4
56,-2.1265225,-1.377,-3.240266,-0.16345534,0.98111516,0.10181114,-0.38212866,0.58783853,0.2554376,0.07431703078509377,-3.024501864267845,-0.0615791579140855,0,56,24,1,dws_1/sub_24.csv,4
57,-2.2271218,-1.3662775,2.4290204,-0.1611383,0.9793821,0.123767614,-0.68953115,0.45015383,0.02392608,-1.574946073190268,-4.026127096250443,-0.527402943043357,0,57,24,1,dws_1/sub_24.csv,4
58,-2.32845,-1.3479182,3.138608,-0.16027917,0.9749538,0.15200774,-0.47104192,-0.08765438,0.06316882,-0.0888032730628823,-4.203324388874091,-1.0548113482035593,0,58,24,1,dws_1/sub_24.csv,4
59,-2.4404464,-1.3013602,2.8355775,-0.17203037,0.964339,0.20338315,-1.8106759,-0.963267,-0.9144509,-4.726525610149805,7.432473191604755,3.64459523653874,0,59,24,1,dws_1/sub_24.csv,4
60,-2.5640464,-1.1331218,2.8976746,-0.2314155,0.90529794,0.35485762,-3.5537229,-0.87299263,-1.8438437,-0.5791792897539059,10.744305351673187,2.6810263606643483,0,60,24,1,dws_1/sub_24.csv,4
61,-2.5908036,-0.97045064,2.7470393,-0.29525477,0.8255748,0.48181182,-1.989187,0.234954,-1.3191036,3.1213600239306136,3.4261144342182908,1.1278334523759257,0,61,24,1,dws_1/sub_24.csv,4
62,-2.5562398,-0.8959002,2.9233563,-0.34623784,0.78044087,0.5200775,-0.6394752,0.6187015,-0.54896003,-1.5518435927435335,-2.099658132120364,0.5306268693662416,0,62,24,1,dws_1/sub_24.csv,4
63,-2.5210872,-0.9024051,2.713169,-0.35899943,0.7852667,0.50519794,0.8908745,0.314247,0.33514267,0.5883544763428443,-6.7869529634996,-2.4699581688163934,0,63,24,1,dws_1/sub_24.csv,4
64,-2.4883745,-0.9734327,3.07112,-0.34378225,0.8264394,0.44527867,1.7568445,-0.03845656,0.53708017,1.0984582874653224,-9.055136568695787,-2.414512765415266,0,64,24,1,dws_1/sub_24.csv,4
65,-2.4511564,-1.1098254,2.6362576,-0.28126574,0.8960006,0.34437582,3.2535782,-1.0358233,2.0551379,3.2585655580762083,-9.933449319712665,-1.957279821903318,0,65,24,1,dws_1/sub_24.csv,4
66,-2.5194023,-1.3096571,3.5800927,-0.15167987,0.96603936,0.20974903,2.7035973,-1.9845004,1.6134684,-0.6642798444666869,8.246179308957858,3.93693916296507,0,66,24,1,dws_1/sub_24.csv,4
67,-2.3489826,-1.3586836,-0.017724037,-0.15003854,0.9773364,0.14605732,0.3568198,1.660876,-0.9085288,-1.4243986341264454,5.971209297073362,8.961482702926965,0,67,24,1,dws_1/sub_24.csv,4
68,-2.1943552,-1.340271,-3.585219,-0.18539038,0.97381854,0.13468057,0.041357614,-0.49725,-0.120243,8.711861844586357,4.409128090924471,-8.370782357803849,0,68,24,1,dws_1/sub_24.csv,4
69,-2.2584057,-1.3378896,-2.7988071,-0.17834818,0.9728515,0.1458391,-0.12441845,-0.6398665,-0.05046718,-5.104021747713743,4.877436657659637,-0.611530427410892,0,69,24,1,dws_1/sub_24.csv,4
70,-2.26668,-1.3368301,-3.1618466,-0.17821859,0.9728996,0.14901452,-0.034350008,0.90181726,0.15542479,-4.330196977254258,4.175751039820408,-1.7159414934310797,0,70,24,1,dws_1/sub_24.csv,4
71,-2.1540334,-1.3464612,-3.018385,-0.1852053,0.974877,0.12213242,0.7964772,0.47180933,-0.19545898,0.25385635621081243,-3.1423583966921242,-2.060324348536314,0,71,24,1,dws_1/sub_24.csv,4
72,-2.0310805,-1.3662963,-2.7081103,-0.1824594,0.97926664,0.090302564,0.21858957,-0.318129,0.3668384,0.29187553007780986,-2.269640446347216,0.2337362307995733,0,72,24,1,dws_1/sub_24.csv,4
73,-2.1523917,-1.3753293,-3.3917139,-0.16209756,0.98091996,0.10672258,-0.4909836,0.041977197,0.23813336,2.9868100277236977,-2.1200400270219015,1.162684623927228,0,73,24,1,dws_1/sub_24.csv,4
74,-2.2486038,-1.3626707,-1.2602956,-0.16115537,0.9785465,0.12948252,-0.74990195,1.3157973,0.14635216,0.33430473372593417,-2.3014400326746,-0.676517522730727,0,74,24,1,dws_1/sub_24.csv,4
75,-2.3577766,-1.3406098,3.501136,-0.16095474,0.9734981,0.16164005,-0.74660826,-0.07357702,-0.055066988,-2.1458476506503104,-5.007390688117679,0.3993455645393238,0,75,24,1,dws_1/sub_24.csv,4
76,-2.5063095,-1.2758691,2.6615167,-0.17241283,0.95697254,0.2339941,-2.329765,-0.8187911,-0.5815968,-4.418038169865057,6.361881567380316,4.034309587291502,0,76,24,1,dws_1/sub_24.csv,4
77,-2.6708753,-1.110513,2.900188,-0.20202602,0.8958788,0.39578363,-3.6077635,-0.5544037,-1.2486912,2.1142448073820472,10.812501064316274,1.350594842545248,0,77,24,1,dws_1/sub_24.csv,4
78,-2.6480834,-0.95170623,2.7126133,-0.27419302,0.8143797,0.51113904,-1.9318414,0.8472999,-1.5383811,0.5459496045977954,1.083924354497843,-0.8030972751390801,0,78,24,1,dws_1/sub_24.csv,4
79,-2.579556,-0.8864491,2.8319066,-0.33805528,0.7751348,0.53472745,-0.12856248,0.8252427,-0.40974766,-4.417784404368296,-2.398755039120691,0.8456053884994249,0,79,24,1,dws_1/sub_24.csv,4
80,-2.5400224,-0.9261734,2.8573189,-0.33885324,0.7989745,0.49566275,1.4693062,-0.05480829,0.59947556,1.128513621014573,-7.176415189496954,-2.1188943544464616,0,80,24,1,dws_1/sub_24.csv,4
81,-2.4994588,-1.0380125,2.8096313,-0.30558747,0.86199725,0.40649283,2.9505646,0.014836997,0.8914859,1.0157908419151362,-11.864349813299134,-0.07512056371187109,0,81,24,1,dws_1/sub_24.csv,4
82,-2.4022841,-1.2276838,3.192426,-0.22576696,0.94101197,0.24845697,3.316028,-0.0820086,2.5624902,3.161285316410169,-5.96760037107934,-2.42778546872826,0,82,24,1,dws_1/sub_24.csv,4
83,-2.4260411,-1.3713952,2.227723,-0.1301188,0.98079437,0.15022448,1.326138,-1.7892702,0.40387738,-2.432659990162848,8.888928824915311,3.890606775168012,0,83,24,1,dws_1/sub_24.csv,4
84,-2.1833193,-1.3671583,-2.9762383,-0.1653923,0.9790356,0.11583239,0.3872252,0.8133972,-0.8659551,1.6743187851686323,1.404169609364615,1.403997525325111,0,84,24,1,dws_1/sub_24.csv,4
85,-2.185971,-1.3697071,-2.9718,-0.16298547,0.98002994,0.11476957,-0.028563455,-1.8517458,0.4096347,8.21452083506998,5.5555196549551376,-3.1933193297319833,0,85,24,1,dws_1/sub_24.csv,4
86,-2.246193,-1.3791332,-2.9482386,-0.14869067,0.98158544,0.11929313,0.108413704,1.1306047,0.06968588,-9.387589240466172,3.0280227343697703,-1.4798207822276945,0,86,24,1,dws_1/sub_24.csv,4
87,-2.147583,-1.3924466,-3.0737805,-0.14878015,0.98421097,0.09675155,0.39411286,0.26319057,0.10636565,-1.747371424022566,0.9313195238209243,-1.6644759820641157,0,87,24,1,dws_1/sub_24.csv,4
88,-2.0849342,-1.3939843,-2.6606243,-0.15333802,0.98438716,0.08622891,-0.012530871,-0.20275591,-0.22728524,1.8907895021128307,-1.1871607291601165,0.21871087741087597,0,88,24,1,dws_1/sub_24.csv,4
89,-2.1864574,-1.3847003,-3.4272506,-0.1507653,0.9827914,0.10704742,-0.60797995,0.1042608,0.35589528,1.9996038108604377,-4.4643860353258695,1.3029140448735101,0,89,24,1,dws_1/sub_24.csv,4
90,-2.3604705,-1.3807752,1.1932755,-0.13349661,0.98212636,0.13388216,-0.83104396,0.7449997,0.21984316,-0.8740205239204679,-1.6232507724668683,1.2506027815769467,0,90,24,1,dws_1/sub_24.csv,4
91,-2.5420227,-1.2855037,3.4177136,-0.15815192,0.9593372,0.23268223,-3.1273775,-0.9148092,-1.1592854,-3.334449894209751,0.09909952331152444,1.9338280910474912,0,91,24,1,dws_1/sub_24.csv,4
92,-2.6817422,-1.1017879,2.5187073,-0.20082675,0.89231217,0.40488446,-3.3579154,-0.06227237,-0.8250265,3.76263200158122,6.4519466553620575,-0.3552436477170522,0,92,24,1,dws_1/sub_24.csv,4
93,-2.6787267,-0.9810919,3.0006578,-0.24956879,0.83100253,0.49728602,-1.4578784,1.205708,-0.95566773,0.027358590293617854,6.535098412999779,-1.7655340054634405,0,93,24,1,dws_1/sub_24.csv,4
94,-2.5550084,-0.93326664,2.6038268,-0.3268909,0.80359304,0.4969659,0.19152252,1.5212538,-0.62911594,-3.715973036407329,-1.8764375328902778,-1.7541553726486554,0,94,24,1,dws_1/sub_24.csv,4
95,-2.4980707,-0.9880338,3.1430671,-0.33437985,0.83524996,0.43793234,2.1506639,-0.108281106,0.8267292,-0.6392984686469618,-7.740479521302463,-1.1425343773037944,0,95,24,1,dws_1/sub_24.csv,4
96,-2.379177,-1.1668254,2.4978275,-0.26717708,0.91906613,0.28725106,4.2912354,-0.34536627,1.8841324,1.6041085446832128,-10.410492653184606,0.30288749115796987,0,96,24,1,dws_1/sub_24.csv,4
97,-2.327356,-1.3623106,-1.0299482,-0.1528633,0.9787928,0.14030242,2.0090864,-1.8419838,1.9290059,1.489799284536172,2.206596257007641,0.3696565067505334,0,97,24,1,dws_1/sub_24.csv,4
98,-2.2625887,-1.4084107,-1.4672492,-0.123232484,0.98653364,0.10302848,0.36463484,0.8429803,-0.57927775,-1.7770522484845084,11.996662753445042,5.143178354009693,0,98,24,1,dws_1/sub_24.csv,4
99,-2.118808,-1.3958822,-3.2066257,-0.14875893,0.9850732,0.09069331,0.034034155,-1.0079494,0.16389333,13.509866860881901,-1.84398010191851,-6.686765877865158,0,99,24,1,dws_1/sub_24.csv,4
100,-2.3008256,-1.4222972,-3.1582167,-0.1097625,0.98880076,0.099174134,-0.1273483,1.0097985,0.63577515,-6.376929810529992,5.665033843061266,1.0540907784589661,0,100,24,1,dws_1/sub_24.csv,4
101,-2.2728517,-1.4103934,-1.0647223,-0.12220369,0.9872757,0.102862194,-0.27548605,0.7866828,-0.38866943,-5.515848549210802,-0.9490573006495882,-4.437937904031906,0,101,24,1,dws_1/sub_24.csv,4
102,-2.2486866,-1.4243002,-2.1868625,-0.112955645,0.9890736,0.09215101,0.7856016,-0.39315403,0.5935364,3.83081504901145,-6.437989492330674,-0.6651750918495647,0,102,24,1,dws_1/sub_24.csv,4
103,-2.152382,-1.459056,-3.7852964,-0.094047,0.99402404,0.060576275,0.039996088,0.8647885,0.0894573,-0.4445320714365828,1.4192584289848578,0.7579153565043045,0,103,24,1,dws_1/sub_24.csv,4
104,-2.2675953,-1.4411124,1.4087548,-0.09888479,0.99148536,0.08317998,-0.76916677,0.73349506,-0.054995343,0.2949446379669728,-2.0249239229783083,1.189123152089583,0,104,24,1,dws_1/sub_24.csv,4
105,-2.420978,-1.3775232,3.2756176,-0.1267676,0.98146814,0.14441282,-2.0786092,0.2608049,-1.0695536,-3.4117895599810075,-1.9422591523588837,2.6851388481778313,0,105,24,1,dws_1/sub_24.csv,4
106,-2.5891685,-1.2115172,2.6416047,-0.18466151,0.93630666,0.2990756,-3.515795,-1.7265332,-1.4357274,1.6431906564485557,4.944603116384938,0.5486358920350589,0,106,24,1,dws_1/sub_24.csv,4
107,-2.687581,-1.0381825,2.8326209,-0.22287911,0.86109185,0.45642555,-2.9381673,0.35290462,-1.0759786,2.5855433401156143,4.929293394657859,0.31674448844934133,0,107,24,1,dws_1/sub_24.csv,4
108,-2.6123044,-0.9285538,2.6975818,-0.30183077,0.8015377,0.51747984,-0.74339944,1.4949706,-0.99340785,-1.6614239311802292,-2.613327500702278,-0.9241289233194174,0,108,24,1,dws_1/sub_24.csv,4
109,-2.5469723,-0.94170684,2.8146052,-0.33085522,0.8075141,0.48621958,1.0469158,0.3171199,0.47863287,-1.809584692616838,-3.8382032891614735,-1.899435895252635,0,109,24,1,dws_1/sub_24.csv,4
110,-2.5047438,-1.0396357,2.8244889,-0.29959917,0.8636828,0.40906274,2.9417944,-0.5289657,0.9608673,1.3528343571759893,-14.53376535044047,-1.8161990896623077,0,110,24,1,dws_1/sub_24.csv,4
111,-2.5183682,-1.2530445,2.894395,-0.18402071,0.9485146,0.25199696,3.6522143,-1.331353,2.8600228,3.502119108088339,-0.6948564174999428,1.474154431186768,0,111,24,1,dws_1/sub_24.csv,4
112,-2.4958282,-1.3864813,2.8684473,-0.1100289,0.9838283,0.14606085,1.2017505,0.14375359,-0.38770556,-3.8782123851079664,14.236773296027504,3.9671087617914487,0,112,24,1,dws_1/sub_24.csv,4
113,-2.1955616,-1.3712252,-2.1205075,-0.16009615,0.9798466,0.11676515,0.32815504,-1.0305192,-0.56954753,6.814704464420095,-1.8742372059590828,-3.5465882837688323,0,113,24,1,dws_1/sub_24.csv,4
114,-2.3175895,-1.390196,-3.4728694,-0.13195075,0.9839427,0.12155472,0.1953196,-0.52986157,0.6228172,-2.973895541809565,3.316833533078451,2.2044715343327805,0,114,24,1,dws_1/sub_24.csv,4
115,-2.1721683,-1.4051,-2.5974145,-0.13587499,0.9861592,0.09349758,0.36216027,1.5847719,-0.27929074,-6.159328558681055,5.214505115703415,-1.1645964831030449,0,115,24,1,dws_1/sub_24.csv,4
116,-2.2005866,-1.389959,-3.6583123,-0.14513539,0.9837734,0.10600906,-0.6024116,-1.4042017,-0.10790439,1.6255547860180417,-0.5859153059573101,-0.17953885442456163,0,116,24,1,dws_1/sub_24.csv,4
117,-2.3459473,-1.3691688,0.028845131,-0.14337245,0.979734,0.13998282,-0.7511863,0.7121919,0.018405646,-0.17607677690879434,-3.434966389495881,1.898327223296217,0,117,24,1,dws_1/sub_24.csv,4
118,-2.514773,-1.2925043,3.5434098,-0.16081098,0.9614507,0.22263947,-2.7977412,-0.43007886,-0.6801937,0.7648355989714775,0.5781135903683879,2.221240794074972,0,118,24,1,dws_1/sub_24.csv,4
119,-2.6692731,-1.1209279,2.5022368,-0.19817771,0.90071076,0.38720077,-3.3502846,-0.45031583,-1.2189997,2.1539132482919348,0.413667755618966,-2.553038537213047,0,119,24,1,dws_1/sub_24.csv,4
120,-2.6550243,-0.97826433,3.0657618,-0.2614625,0.82942,0.49336255,-1.8388705,0.9364436,-1.2002386,0.11529618052993965,0.005835378531327131,0.08176733642591322,0,120,24,1,dws_1/sub_24.csv,4
121,-2.5895479,-0.9223443,2.6221552,-0.31556156,0.79712164,0.5149964,0.09865384,0.4041804,-0.3990053,-3.701911886604386,-0.9310273477098637,-2.914771082355245,0,121,24,1,dws_1/sub_24.csv,4
122,-2.5735662,-0.98536384,3.1383479,-0.29916963,0.8335866,0.46479642,2.2245867,-0.22027843,1.0806162,-1.5054538418713423,-6.401582786299644,0.09275110754858963,0,122,24,1,dws_1/sub_24.csv,4
123,-2.5502696,-1.1817086,2.5597446,-0.20962009,0.9249768,0.31575882,4.280843,-0.6919396,2.350659,2.610394725393387,-7.5398967976803775,0.09953204052560348,0,123,24,1,dws_1/sub_24.csv,4
124,-2.568604,-1.3939197,3.6115172,-0.09592778,0.9848715,0.14816087,2.5213282,-0.92391443,1.4779967,-0.4199824168942197,5.7907727639089295,0.9294656553947919,0,124,24,1,dws_1/sub_24.csv,4
125,-2.4061937,-1.4448543,-0.046628833,-0.08465691,0.9916725,0.09214684,0.5514034,-1.1900421,-0.6454673,2.7369120320816767,1.2803561843258273,2.0782829433895063,0,125,24,1,dws_1/sub_24.csv,4
126,-2.261194,-1.4466251,-3.3745325,-0.09492552,0.9925629,0.07911752,0.3748209,-2.0863452,0.06975046,3.5783340550273337,-0.3147793555178766,-2.0916915953927355,0,126,24,1,dws_1/sub_24.csv,4
127,-2.2427087,-1.466765,-2.6826437,-0.08149689,0.9944649,0.064294666,0.47093034,1.8731086,0.2781152,-4.8863427529557,5.460696503734065,0.7594579885462076,0,127,24,1,dws_1/sub_24.csv,4
128,-1.8786061,-1.4954027,-2.5444,-0.07182253,0.9972078,0.022969529,0.65074253,0.108640075,0.26301396,-4.697834741311184,2.5994493234982787,-0.9486226907547334,0,128,24,1,dws_1/sub_24.csv,4
129,-1.9497715,-1.4998583,-2.874568,-0.06583926,0.99749976,0.026695758,-0.49235022,-1.0904107,0.007824048,0.742228696326253,-5.668290726830878,1.7926138333744543,0,129,24,1,dws_1/sub_24.csv,4
130,-2.4162955,-1.4938862,-1.3172224,-0.051122695,0.9970346,0.056652233,-0.5797901,0.045039892,0.5101687,3.1968376223942063,-4.610714485737143,1.1825633419249968,0,130,24,1,dws_1/sub_24.csv,4
131,-2.8173916,-1.4586242,3.5312893,-0.035786346,0.993835,0.106580116,-1.5670118,-1.185049,-0.10640311,-0.8448616507109183,-2.3430512633257132,1.2331864901593046,0,131,24,1,dws_1/sub_24.csv,4
132,-2.9206738,-1.3306487,2.334872,-0.051687777,0.97127426,0.23205373,-3.0556483,-1.3311077,-0.9782248,0.2824999963253283,6.751062479957321,-0.5026754851218148,0,132,24,1,dws_1/sub_24.csv,4
133,-2.8123915,-1.1731461,3.6197767,-0.12507392,0.92202705,0.36622292,-2.2729247,0.5793666,-2.0703769,-0.8766864038261919,3.216843787707126,0.6942671070086035,0,133,24,1,dws_1/sub_24.csv,4
134,-2.6551156,-1.0738963,1.0975951,-0.22395398,0.87908065,0.4213154,-0.52823734,0.10251951,-1.5244576,-5.387096443630445,0.9287787480603621,2.5470411373891024,0,134,24,1,dws_1/sub_24.csv,4
135,-2.6006656,-1.0812331,-3.43147,-0.24168411,0.8825558,0.4031409,1.262227,-0.124242336,0.2527483,0.08699344654497143,-3.8296052871684934,0.6209578490246636,0,135,24,1,dws_1/sub_24.csv,4
136,-2.5326152,-1.1760663,-2.925446,-0.22159278,0.92324764,0.31480196,2.3580027,0.004867822,0.46957225,3.0937320262137695,-9.324797770775907,-2.0214962277690107,0,136,24,1,dws_1/sub_24.csv,4
137,-2.368664,-1.3150852,-2.7936475,-0.1749775,0.9670957,0.18255849,3.129204,-0.24231134,1.6217332,1.8463108515677764,-10.753258896887763,0.8262191554248259,0,137,24,1,dws_1/sub_24.csv,4
138,-2.4870799,-1.4618433,-3.0311847,-0.067712665,0.9949299,0.08333914,0.770436,-4.5514493,1.5685474,-3.131972726103592,9.694446737052067,8.239521597858213,0,138,24,1,dws_1/sub_24.csv,4
139,-2.7989564,-1.3992441,-2.580633,-0.0660159,0.98400265,0.15966748,-2.1837478,-0.6437995,-1.8784245,-5.821184011084815,2.4622731907014193,9.62029358123062,0,139,24,1,dws_1/sub_24.csv,4
140,-2.3617957,-1.3246534,-3.478322,-0.15568219,0.9710477,0.1875395,0.31850463,3.791362,0.3501094,15.633319634867703,-12.842436016836777,-8.325947088864718,0,140,24,1,dws_1/sub_24.csv,4
141,-2.877897,-1.4113498,0.38825184,-0.056857362,0.9866927,0.142685,0.4595585,-2.602552,2.2067685,6.19095778678395,18.43513235557355,-8.68173806675479,0,141,24,1,dws_1/sub_24.csv,4
142,-2.8170304,-1.4222186,-0.5966607,-0.028355509,0.98955953,0.14346993,0.21462491,0.6398786,-0.83524334,-10.624882046678422,6.578195600196588,-0.03224504804628746,0,142,24,1,dws_1/sub_24.csv,4
143,-2.9622173,-1.4813251,-4.0024376,-0.041134715,0.9951528,0.08726376,1.9258375,-0.9366575,0.70864064,8.14533448986351,-2.1178638617847967,-4.949212583692375,0,143,24,1,dws_1/sub_24.csv,4
144,-0.5059079,-1.5412302,-0.3413815,0.01511234,1.000062,-0.02257207,2.122751,0.8715221,0.90903044,-1.7360209138449072,1.7097688584062236,1.9031781770209109,0,144,24,1,dws_1/sub_24.csv,4
145,0.6730325,-1.4440634,0.11314154,0.049055815,0.9920183,-0.11335324,1.6810954,0.18087542,0.6759426,2.112541972688636,-3.5098045676216567,0.11290897279462458,0,145,24,1,dws_1/sub_24.csv,4
146,0.37072444,-1.374597,0.24212965,0.09518452,0.9806859,-0.17449777,0.68785584,0.3753419,1.0502081,1.7166899166322904,-2.3336461310988734,4.8301373529527565,0,146,24,1,dws_1/sub_24.csv,4
147,0.75804424,-1.3319525,0.32478693,0.1472029,0.97176415,-0.18100677,0.086321235,0.46426988,0.7215251,-3.887413648523573,0.09191454302640148,2.568760292068275,0,147,24,1,dws_1/sub_24.csv,4
148,0.7269509,-1.3557811,0.49214435,0.15161876,0.9768432,-0.15755124,-1.6998365,-1.3552904,-0.2092715,-5.322435765974692,-0.7186617715676054,7.277519798277575,0,148,24,1,dws_1/sub_24.csv,4
149,1.5191262,-1.4354421,1.3313022,0.1254711,0.9907904,-0.0065425783,-4.2448874,-3.8167348,-0.38346818,0.8303463657709571,8.615788433432556,-1.6912593758311654,0,149,24,1,dws_1/sub_24.csv,4
150,2.717319,-1.4133432,2.760275,0.07137619,0.9877568,0.14742155,-2.6397982,-1.8715279,-2.5242605,-6.641710557699498,7.537592898472041,-10.336607627071714,0,150,24,1,dws_1/sub_24.csv,4
151,-1.9781051,-1.2942959,-1.9044111,-0.101745315,0.96193236,0.25018746,-1.6919255,-1.1824809,-3.9723363,-9.248655615045715,2.426679765071072,-1.243086730242639,0,151,24,1,dws_1/sub_24.csv,4
152,-2.8203788,-1.1875982,-2.5379725,-0.18671888,0.9274277,0.3248877,-0.38259113,-5.3443627,-2.1198092,3.2514897482812515,2.3249447010124067,-4.799070239426567,0,152,24,1,dws_1/sub_24.csv,4
153,-2.594739,-1.1365455,-2.0391421,-0.18342954,0.907485,0.3788364,0.097806096,-4.2948627,-1.8668487,3.077111108171227,-8.41763255523818,-1.6867038873099007,0,153,24,1,dws_1/sub_24.csv,4
154,-2.7357566,-1.135947,-1.9937534,-0.1869443,0.9064657,0.37691206,1.1532688,-3.0492947,-1.1081568,3.5265579409253442,-5.516236785428036,-4.526006764084463,0,154,24,1,dws_1/sub_24.csv,4
155,-2.6669714,-1.1832917,-1.7427971,-0.16400428,0.92662144,0.34203017,1.8831675,-3.2014306,-0.63325125,4.36001045595292,-7.594609274089182,-1.5928856457425256,0,155,24,1,dws_1/sub_24.csv,4
156,-2.5527117,-1.3011626,-1.560576,-0.15171349,0.9631483,0.21766804,2.9735043,0.47705412,0.3801043,2.351021657871311,-0.25791700340832613,-0.009978863897562154,0,156,24,1,dws_1/sub_24.csv,4
157,-2.4996634,-1.3466833,-1.4396727,-0.12806201,0.9750023,0.18243742,-0.952547,-3.8482068,-0.5627048,-5.994101716658167,13.540876360338434,17.55121389029052,0,157,24,1,dws_1/sub_24.csv,4
158,-2.4136128,-1.2691658,-1.223589,-0.2016773,0.9551939,0.21539353,0.98694897,0.9354791,-1.8099499,-6.579639741685969,-11.416875135657518,-5.298391670548208,0,158,24,1,dws_1/sub_24.csv,4
159,-2.0561757,-1.2902235,-0.99174243,-0.24345903,0.96063006,0.13298616,0.04543609,0.30338037,1.145824,2.928740764905653,5.0665069837072005,-6.166223705889792,0,159,24,1,dws_1/sub_24.csv,4
160,-2.4195595,-1.3442192,-1.1444881,-0.15122692,0.97456926,0.16723189,1.0743607,-5.619036,0.48335642,4.995779670024912,0.39171197758626125,4.421638429918758,0,160,24,1,dws_1/sub_24.csv,4
161,-2.0205271,-1.4137262,-0.6513749,-0.13882238,0.9876604,0.068671554,2.289385,1.0422354,0.014638066,-1.7663796260222333,-3.0524542677988817,-5.669851273547216,0,161,24,1,dws_1/sub_24.csv,4
162,-1.652479,-1.4487913,-0.2943858,-0.1230005,0.99261254,0.008877203,0.7202307,-1.0385838,0.5293677,0.17082163370339937,1.6904989158960182,3.617967008966921,0,162,24,1,dws_1/sub_24.csv,4
163,-1.0258466,-1.4683963,0.3931289,-0.08546978,0.9949035,-0.051755175,1.7191367,-0.58548224,1.0085456,4.567860431097173,-3.8584661480227074,-0.8650422665380197,0,163,24,1,dws_1/sub_24.csv,4
164,-0.28868842,-1.4555352,1.1359336,-0.03530799,0.9933208,-0.1131122,0.7502032,0.18024689,0.8478258,-0.3475411646621093,-0.454302144197188,-0.1491988545900264,0,164,24,1,dws_1/sub_24.csv,4
165,-0.056048274,-1.4213634,1.3694985,-0.00491032,0.98913676,-0.1467445,0.8273612,-0.347408,0.47723842,-0.7578528910757614,-1.4947515645961018,-2.7720170114345977,0,165,24,1,dws_1/sub_24.csv,4
166,0.03249812,-1.3758442,1.5164143,0.0004877895,0.9806395,-0.19704793,1.0138767,-1.5979133,0.13985519,-1.4094844938865105,2.721608018542695,2.1158765404575406,0,166,24,1,dws_1/sub_24.csv,4
167,-0.11322582,-1.3528275,1.43901,-0.016074538,0.9771108,-0.21204837,-0.5212325,-1.0794423,-0.14492941,-1.6976170541630555,2.6304042069481213,5.805211430207539,0,167,24,1,dws_1/sub_24.csv,4
168,-0.22440696,-1.443167,1.3771247,-0.0354847,0.99091935,-0.1301315,-2.3901749,-1.0543255,-0.25698745,-0.31837287225179417,3.9221804397640536,4.789494388053342,0,168,24,1,dws_1/sub_24.csv,4
169,-1.7019743,-1.4956653,-0.05983931,-0.06450581,0.9977706,0.022586465,-3.4234152,-0.7322719,-0.99418145,0.7484244769474933,4.968669372410138,-7.378286967498185,0,169,24,1,dws_1/sub_24.csv,4
170,-2.4633045,-1.3143111,-0.78084964,-0.17574464,0.9671681,0.18212122,-2.5375116,-1.0329126,-3.540702,-2.378325231928626,4.492402848220391,-5.200964986351822,0,170,24,1,dws_1/sub_24.csv,4
171,-2.221741,-1.1049328,-0.45844656,-0.34493297,0.8933345,0.28932393,-1.7193716,-1.6512094,-3.7842817,-1.0154954978574404,5.055369308020885,-1.7760659864384534,0,171,24,1,dws_1/sub_24.csv,4
172,-2.3485928,-0.9240762,-0.47513372,-0.44061613,0.79829067,0.40989792,-1.8141685,-2.3138542,-2.6593776,1.7065916813057003,-0.7060987820686889,-0.1767695683926041,0,172,24,1,dws_1/sub_24.csv,4
173,-2.3668234,-0.8108784,-0.36253917,-0.47391808,0.72479755,0.50095797,-0.18256256,-2.1261954,-1.8212879,2.338995350748802,-6.768916916013281,-0.9865886018860189,0,173,24,1,dws_1/sub_24.csv,4
174,-2.4335697,-0.79668665,-0.3086484,-0.459962,0.71526563,0.5256907,1.0450346,-1.8052645,-0.33435798,4.507449256090933,-9.280366637277988,-0.3503793922023991,0,174,24,1,dws_1/sub_24.csv,4
175,-2.4245415,-0.8662158,-0.24095374,-0.42425475,0.7618202,0.49058914,1.9476781,0.25747555,0.73810554,6.312971514953216,-11.639653879198368,0.8145918474580193,0,175,24,1,dws_1/sub_24.csv,4
176,-2.3130348,-0.985569,-0.1662482,-0.4072983,0.8337047,0.3724528,2.5535467,0.8219475,1.2479334,-0.23090257623736746,-3.4839956828297174,0.7640961764446443,0,176,24,1,dws_1/sub_24.csv,4
177,-2.289228,-1.119215,-0.10139924,-0.32963586,0.8997013,0.2868338,1.9706271,-1.3904577,1.5641179,-5.153203708545195,9.892063840399283,3.347286466160974,0,177,24,1,dws_1/sub_24.csv,4
178,-2.18439,-1.2001888,0.025241792,-0.2949819,0.93219477,0.20826924,1.552469,0.9641935,-0.13894226,1.3736136628173776,-2.524127787966676,1.3026921794537076,0,178,24,1,dws_1/sub_24.csv,4
179,-2.0236495,-1.2154857,0.15523627,-0.3139121,0.9375095,0.15232682,0.51971555,-0.2564022,-0.026654921,3.6863773002924036,-1.6201678787270388,-0.9120456042179887,0,179,24,1,dws_1/sub_24.csv,4
180,-2.0586307,-1.2147722,0.20454282,-0.30717343,0.93735725,0.1633801,0.072620705,-2.032768,-0.48542553,-1.95676144176665,3.754077277538698,-2.003476820018408,0,180,24,1,dws_1/sub_24.csv,4
181,-2.0956683,-1.1890643,0.2110683,-0.32287085,0.9279539,0.18666591,-0.2148155,0.26476216,-0.0982683,-0.5719591023779413,3.980757725657958,0.8208978636896869,0,181,24,1,dws_1/sub_24.csv,4
182,-2.0364022,-1.2007778,0.22717056,-0.32267267,0.93244225,0.16227439,0.39511168,0.9449782,-0.052106343,-2.0108914843108354,4.148054243566855,1.0908592588000392,0,182,24,1,dws_1/sub_24.csv,4
183,-2.0023751,-1.1799276,0.24229455,-0.3463952,0.9244302,0.1597042,-0.50471425,0.065558106,-0.32021695,-2.0700280676922738,-4.882263387375918,0.33035959563615613,0,183,24,1,dws_1/sub_24.csv,4
184,-2.07844,-1.1812818,0.14931881,-0.33171856,0.9253838,0.18420683,-0.70967406,0.36533564,0.52855283,-0.5758838025819437,-3.44003216208829,4.540395990106948,0,184,24,1,dws_1/sub_24.csv,4
185,-2.2132304,-1.1254219,0.00793016,-0.34486574,0.9019274,0.2584119,-2.4941916,-0.773297,-0.96980476,-0.09198314489901024,2.785065601442503,2.1375128965149743,0,185,24,1,dws_1/sub_24.csv,4
186,-2.4067407,-0.9980522,-0.16829282,-0.36369973,0.8410206,0.40213495,-3.5705807,0.0006762743,-1.0538274,2.689425359994677,-0.22942635678478443,-1.6967195812835933,0,186,24,1,dws_1/sub_24.csv,4
187,-2.406881,-0.8636246,-0.24764329,-0.43530697,0.7596725,0.48146003,-1.9378247,1.6619508,-1.423258,-1.844021341724035,1.7551393361466807,0.07098749134755292,0,187,24,1,dws_1/sub_24.csv,4
188,-2.3699043,-0.80408907,-0.23052531,-0.48393023,0.72049904,0.49760884,0.27308095,-0.33777618,-0.19464667,-1.9683784452669602,-4.517729971839402,-1.5876998519159116,0,188,24,1,dws_1/sub_24.csv,4
189,-2.3307624,-0.8776041,-0.19711411,-0.46316552,0.76928514,0.44010687,2.3775845,0.92872185,1.2566881,0.549421105933471,-8.605747124871815,1.405065001557087,0,189,24,1,dws_1/sub_24.csv,4
190,-2.2041934,-1.0681934,-0.051176727,-0.3884083,0.875904,0.28495875,4.3022447,-1.0160301,2.4383333,2.6720298486863774,-3.4436536199574257,-0.06360215512505604,0,190,24,1,dws_1/sub_24.csv,4
191,-2.0782516,-1.2376755,0.15122792,-0.28559554,0.94569844,0.15919834,1.8305509,-0.7885609,0.87311876,-3.4739493217082824,7.410443612502197,0.4217741330265081,0,191,24,1,dws_1/sub_24.csv,4
192,-2.007289,-1.2296506,0.2880215,-0.30329755,0.94185084,0.14137957,0.2994969,-2.1049404,-1.0418328,3.572525737142019,0.11232243320897903,-0.9804276247175913,0,192,24,1,dws_1/sub_24.csv,4
193,-2.0770445,-1.2101234,0.32623616,-0.30827424,0.93598497,0.17101602,-0.31399712,-1.0317624,-0.07967382,-1.6106396408039005,5.959907490229056,2.5094721728385028,0,193,24,1,dws_1/sub_24.csv,4
194,-2.0756824,-1.1821964,0.273625,-0.3318768,0.92527664,0.18290837,-0.4724223,1.9485047,-0.35773045,-1.1265454034732332,0.4278274821845377,-4.069811432635442,0,194,24,1,dws_1/sub_24.csv,4
195,-1.9835448,-1.2023766,0.30353332,-0.32966584,0.9329255,0.14493573,0.90984803,0.6143015,0.67045766,-2.6164008829474996,0.2659092417630914,-0.5852391892479994,0,195,24,1,dws_1/sub_24.csv,4
196,-1.9260823,-1.2113451,0.3569439,-0.32988334,0.93589205,0.12219586,-0.42483383,-0.24769138,-0.70602643,-9.09108250722113,4.1523337067393955,4.2490786411266095,0,196,24,1,dws_1/sub_24.csv,4
197,-2.1368504,-1.1378491,0.17019758,-0.35428214,0.90813714,0.2244629,-3.012713,-1.1435673,-0.28351298,5.96061090617655,-1.4891481148233428,3.0689156728664453,0,197,24,1,dws_1/sub_24.csv,4
198,-2.4130113,-1.0124764,-0.082928956,-0.35241577,0.8476137,0.39589578,-3.4646997,-0.6211639,-0.72041816,4.081860954736822,0.18039318593004186,-1.5921886596474335,0,198,24,1,dws_1/sub_24.csv,4
199,-2.4446485,-0.8673128,-0.16586423,-0.4157888,0.76317745,0.49556655,-2.1385787,1.806263,-1.2551012,-0.3153466172510479,2.084631423636921,-1.0955444565354497,0,199,24,1,dws_1/sub_24.csv,4
200,-2.3574965,-0.7938888,-0.16439801,-0.4944272,0.71263164,0.49680144,-0.22098517,0.97117907,-0.55169296,-1.878675245036396,-0.04759337468700355,-2.629857174415168,0,200,24,1,dws_1/sub_24.csv,4
201,-2.3428097,-0.8388938,-0.13399178,-0.4800409,0.7443163,0.4656356,2.1296964,-0.5209496,1.0345169,-2.3797065225689544,-9.219113068283736,2.5411449092694314,0,201,24,1,dws_1/sub_24.csv,4
202,-2.2404945,-1.0292668,0.0070218444,-0.40281218,0.8565862,0.32050842,4.607958,-0.17811282,2.3899271,-0.2788257944195472,-9.295197226442696,0.16187344772238516,0,202,24,1,dws_1/sub_24.csv,4
203,-2.0840855,-1.2309434,0.21127343,-0.29128647,0.9431801,0.16349863,2.4906003,-0.8153857,1.631654,1.5653001177235097,10.42271243827042,-3.988475963289986,0,203,24,1,dws_1/sub_24.csv,4
204,-1.9202422,-1.2724793,0.43606794,-0.27584487,0.9555333,0.1004634,1.2826779,-1.4241245,-0.5947171,1.5578895761361944,3.158038053033498,3.2560003423572024,0,204,24,1,dws_1/sub_24.csv,4
205,-1.8885881,-1.2593008,0.58939785,-0.29082802,0.9521235,0.0956555,0.13497257,-2.666556,-0.39970922,5.827522296701778,-0.9411396153746135,-3.8511950226119462,0,205,24,1,dws_1/sub_24.csv,4
206,-1.9629078,-1.2477608,0.5511451,-0.29380253,0.94810474,0.12136562,-0.2406806,1.4878373,0.21288048,3.997707164190582,3.0162746644893983,-0.17432908313316484,0,206,24,1,dws_1/sub_24.csv,4
207,-1.8254049,-1.2613264,0.55538255,-0.29450715,0.9525681,0.07667424,0.11211189,2.274833,-0.08503472,-6.656016986211664,8.561486800484094,-2.176060319780326,0,207,24,1,dws_1/sub_24.csv,4
208,-1.7977533,-1.2375793,0.5436645,-0.31908062,0.9449784,0.07348783,-0.14117664,0.15748316,-0.25978684,-3.949262317290899,-7.209832944033855,-1.8757640197611138,0,208,24,1,dws_1/sub_24.csv,4
209,-1.725829,-1.2617939,0.59796363,-0.30010015,0.95266575,0.046771646,0.650501,0.23106575,0.47563016,-2.5474629264012334,2.100282799287761,3.0222668012570915,0,209,24,1,dws_1/sub_24.csv,4
210,-1.8218536,-1.2272147,0.5421436,-0.32630655,0.9414267,0.084798485,-1.9075696,-1.506968,-1.2816533,-1.0918042354667468,0.20202614651692838,5.691345225112437,0,210,24,1,dws_1/sub_24.csv,4
211,-2.2105057,-1.130747,0.1810495,-0.342582,0.9049546,0.25265694,-3.7728045,-0.5820552,0.34181893,7.542013563057687,-3.031463311651799,-0.2361385218863645,0,211,24,1,dws_1/sub_24.csv,4
212,-2.4313574,-1.0151261,-0.073363125,-0.34305418,0.84933317,0.40123123,-2.973984,0.84996694,-0.8313646,1.212559565210434,-0.9567398763458144,-0.6777344047550368,0,212,24,1,dws_1/sub_24.csv,4
213,-2.3848338,-0.8754929,-0.11599445,-0.44041193,0.76809585,0.4650774,-1.7334137,1.5903924,-1.46117,-3.424156748663904,4.75733786288866,-0.1257627758434425,0,213,24,1,dws_1/sub_24.csv,4
214,-2.3557754,-0.8194685,-0.102639675,-0.48270762,0.7306003,0.48244905,0.27093416,-0.6573316,-0.37694627,-2.00827793127162,-2.564255251244615,-3.7849114418880077,0,214,24,1,dws_1/sub_24.csv,4
215,-2.3595054,-0.879035,-0.037753046,-0.4495402,0.7703615,0.4530374,2.5268197,-1.1089234,0.72226787,-0.2948120186724332,-7.654022225290912,0.8772181838465454,0,215,24,1,dws_1/sub_24.csv,4
216,-2.2685606,-1.0662359,0.1219151,-0.37077057,0.8750546,0.30973908,4.5790772,-0.297587,2.1512969,5.190527605740017,-4.0671160390858505,-0.20028660314651933,0,216,24,1,dws_1/sub_24.csv,4
217,-2.0035555,-1.2500057,0.38190347,-0.28594926,0.9495257,0.13290766,2.5258503,0.681827,1.10867,-0.03190326060886313,8.213691308184329,2.7082776324415483,0,217,24,1,dws_1/sub_24.csv,4
218,-1.818287,-1.2593517,0.60848546,-0.29714745,0.9513828,0.07517663,0.81048286,-1.766671,-0.89311963,0.14780745845552148,-2.510887593467401,-1.12403759188572,0,218,24,1,dws_1/sub_24.csv,4
219,-1.8433142,-1.2435373,0.66519374,-0.30930266,0.9472638,0.0858443,-0.22228175,-0.70936924,0.05617416,2.037605176563611,5.890273387028234,-0.12682105868074905,0,219,24,1,dws_1/sub_24.csv,4
220,-1.8557156,-1.2360142,0.6172721,-0.31537533,0.9442112,0.09267605,-0.10970682,1.4742236,-0.21602374,-0.7160886761754592,3.7752691573935993,-3.0470099332572844,0,220,24,1,dws_1/sub_24.csv,4
221,-1.7536247,-1.235094,0.6586041,-0.32426262,0.9444202,0.059521347,0.16529278,0.6198483,0.0058451444,-5.926786814690824,2.214935060068674,0.30334422680936934,0,221,24,1,dws_1/sub_24.csv,4
222,-1.8995711,-1.2057463,0.5174849,-0.33712378,0.93377817,0.116155066,-2.311777,-0.6442385,-0.5560176,-0.779500688680212,1.4343125333081657,5.4223592220518615,0,222,24,1,dws_1/sub_24.csv,4
223,-2.2429376,-1.1150823,0.16423753,-0.3453864,0.89842516,0.2729322,-3.7152982,-0.08123514,0.09887767,6.7114841343615685,-3.6893256994318864,-2.5103593690407804,0,223,24,1,dws_1/sub_24.csv,4
224,-2.4103785,-0.9806578,-0.05372733,-0.37096938,0.8302441,0.4150514,-2.9804857,1.1559656,-1.1842563,1.00018092871078,-3.5286065100512833,-3.3020548030564334,0,224,24,1,dws_1/sub_24.csv,4
225,-2.3334703,-0.85237753,-0.078445494,-0.47612178,0.7536454,0.45446983,-1.275152,1.9793139,-1.3094108,-1.769553274676978,3.0199854566111553,-2.308930581309716,0,225,24,1,dws_1/sub_24.csv,4
226,-2.3014557,-0.8277889,-0.07444066,-0.50376946,0.7355051,0.4512354,0.59772766,-0.48650122,0.27566612,-3.366612082244721,-3.5952450448913185,-1.4159151442866236,0,226,24,1,dws_1/sub_24.csv,4
227,-2.2805912,-0.93233836,-0.0031554103,-0.45180732,0.8040702,0.38861006,3.341044,-0.6563715,1.663593,-0.030894642846579275,-10.889161386148405,4.503118642793128,0,227,24,1,dws_1/sub_24.csv,4
228,-2.1601987,-1.1594518,0.17739734,-0.3326975,0.91576266,0.22259179,4.18445,-0.55565715,2.756922,0.9280409590538226,4.109465391574571,-1.4583892147056496,0,228,24,1,dws_1/sub_24.csv,4
229,-1.8917117,-1.2854033,0.46506113,-0.26704437,0.95986974,0.08770932,1.715986,-0.12204188,-0.08392841,0.16562713433493237,5.6424039402085375,0.5505306872473417,0,229,24,1,dws_1/sub_24.csv,4
230,-1.8208297,-1.2642765,0.62817854,-0.29212075,0.9533403,0.07544471,0.24608013,-2.857149,-0.36578038,5.670863869930798,-5.105450690431746,0.6779911263886681,0,230,24,1,dws_1/sub_24.csv,4
231,-1.8905258,-1.2716823,0.62504053,-0.27996355,0.9555964,0.0922058,0.046227954,0.9188289,0.17029224,0.07984101666744953,4.829657209025657,-1.7736885476164266,0,231,24,1,dws_1/sub_24.csv,4
232,-1.7302121,-1.2676562,0.6682236,-0.29457515,0.95442325,0.047734424,0.2919997,2.2810056,-0.15399127,-2.8456532905939347,3.5361339446493543,-1.316359537403805,0,232,24,1,dws_1/sub_24.csv,4
233,-1.6959276,-1.2699777,0.67226046,-0.29409522,0.9550571,0.036832258,-0.2679081,-0.48337808,0.040397853,-6.477064886831378,2.456214569863994,0.7238462875025508,0,233,24,1,dws_1/sub_24.csv,4
234,-1.8541777,-1.2512747,0.53266954,-0.30154306,0.9494784,0.0877593,-1.580579,-0.19174103,-0.35086876,1.3279691335821069,-0.22061493857560616,4.30958283824803,0,234,24,1,dws_1/sub_24.csv,4
235,-2.1477892,-1.1743236,0.21896744,-0.32363725,0.922304,0.2106623,-3.3993616,-0.068369836,-0.57456374,2.2696338879594253,-0.18081151175123497,0.4150284702642806,0,235,24,1,dws_1/sub_24.csv,4
236,-2.372544,-1.0232165,-0.02503097,-0.36240634,0.85397255,0.3741892,-3.440038,0.16574621,-1.2699397,1.7625871927477283,-2.552468851434889,-2.5660552799983396,0,236,24,1,dws_1/sub_24.csv,4
237,-2.378763,-0.87976897,-0.08752477,-0.4399255,0.77047795,0.4605912,-1.7432127,1.1919854,-1.2263697,-1.938854289683432,0.1556328563428829,-0.6687731954843552,0,237,24,1,dws_1/sub_24.csv,4
238,-2.351562,-0.8404297,-0.088427365,-0.4744423,0.7449861,0.46929324,0.5473157,-0.27169502,0.072610155,-3.5988151309734007,-2.769974305093364,-2.9342643905543473,0,238,24,1,dws_1/sub_24.csv,4
239,-2.3539555,-0.9438153,-0.021954775,-0.41532212,0.8099022,0.41450235,3.24073,-1.3369237,1.5570203,-0.9532207056778295,-6.3019635778376335,1.3844345365721011,0,239,24,1,dws_1/sub_24.csv,4
240,-2.2477567,-1.1642146,0.13835126,-0.3087295,0.9181755,0.24709517,4.408391,-0.09168875,2.4698262,2.922759842122235,0.5064222997994139,0.4981568566373018,0,240,24,1,dws_1/sub_24.csv,4
241,-1.9399438,-1.3324639,0.47088724,-0.22004981,0.9722102,0.0848095,2.44505,-0.5614593,0.8176086,0.7866491134569384,6.6487392437658395,0.8467772017062848,0,241,24,1,dws_1/sub_24.csv,4
242,-1.7285253,-1.3347217,0.7537035,-0.23112395,0.97211146,0.038640633,0.46045172,-2.0738537,-0.38247335,2.0739047023283708,-9.131295565172866,3.4495630974876277,0,242,24,1,dws_1/sub_24.csv,4
243,-1.8569436,-1.3702984,0.7610379,-0.19111668,0.97996575,0.054769784,0.24744655,-2.3871794,1.1502614,8.732100210650168,1.1504590272074975,-4.399726980393722,0,243,24,1,dws_1/sub_24.csv,4
244,-1.8490055,-1.3732786,0.7669557,-0.18840681,0.9803303,0.0524749,-0.23936751,1.7843211,-0.7930466,-2.4954049347123894,2.0223473645175223,0.9249516616742344,0,244,24,1,dws_1/sub_24.csv,4
245,-1.7592885,-1.3649235,0.78296876,-0.2006264,0.9789612,0.039781168,0.47483382,0.6210578,0.70632446,-2.5296233953357232,-1.1958407397805677,-3.3439193039621706,0,245,24,1,dws_1/sub_24.csv,4
246,-1.6446495,-1.3878082,0.8902328,-0.1822372,0.9832329,0.011561707,-0.12302706,-0.08200732,-0.60360914,-8.945208801667437,5.4819428516442725,6.439533733659672,0,246,24,1,dws_1/sub_24.csv,4
247,-2.0612357,-1.2953004,0.5361096,-0.23769191,0.96264714,0.12890872,-3.4859984,-2.652135,-1.0859679,2.7235761466311845,-1.4375000432482532,2.538023123184255,0,247,24,1,dws_1/sub_24.csv,4
248,-2.5183058,-1.1543274,0.1849339,-0.23899844,0.91411537,0.32868975,-3.1525016,-1.6467545,-0.58687437,4.476879526410425,-3.2614825523483844,-2.095560923493397,0,248,24,1,dws_1/sub_24.csv,4
249,-2.5409217,-1.0111996,0.17468113,-0.29759765,0.8477951,0.4379688,-2.042094,0.5791535,-2.2331529,-3.4148623088967023,3.539936534336304,1.4587447180307775,0,249,24,1,dws_1/sub_24.csv,4
250,-2.464003,-0.88114405,0.24282849,-0.4006646,0.7715851,0.4954477,-0.8664981,-0.25117224,-1.7763392,-3.352570640041162,1.439716482001627,-2.752198900170238,0,250,24,1,dws_1/sub_24.csv,4
251,-2.4555907,-0.8787926,0.32044792,-0.4038149,0.76956135,0.49338108,1.7196503,-1.0079855,-0.21088412,-1.045639937875726,-5.895083332548333,2.6339591086186793,0,251,24,1,dws_1/sub_24.csv,4
252,-2.3504808,-0.97427595,0.4797779,-0.40029746,0.82811904,0.3948065,3.293327,-0.15979569,0.14659317,0.2896361152662606,-7.212804421542831,2.5551201460489326,0,252,24,1,dws_1/sub_24.csv,4
253,-2.2540932,-1.1220305,0.6382897,-0.33727774,0.9002541,0.27267468,2.6124876,-2.0692563,1.655656,0.5462080091276997,0.5124285831641021,5.590391178557318,0,253,24,1,dws_1/sub_24.csv,4
254,-2.4081123,-1.1875304,0.6628233,-0.25021017,0.92776424,0.27885753,-0.4057065,-2.8323445,0.18252774,-2.8555401173504062,6.488776959607224,13.028708381144925,0,254,24,1,dws_1/sub_24.csv,4
255,-2.382874,-1.170878,0.6455895,-0.26786506,0.9209884,0.28133136,0.84357595,1.9888778,-0.5286283,-2.481218855731968,-15.6749292750246,-6.484302013182369,0,255,24,1,dws_1/sub_24.csv,4
256,-2.2593548,-1.2375075,0.79930675,-0.25406685,0.9451458,0.20705272,0.8173464,-0.662432,1.9096208,12.403129465515862,0.35827068744516555,-10.872837863887739,0,256,24,1,dws_1/sub_24.csv,4
257,-2.5762184,-1.3313007,0.45219567,-0.12393542,0.9712564,0.19859944,0.74630094,-3.3869584,1.2029953,1.5623272039598703,21.1502791145394,4.498163840444668,0,257,24,1,dws_1/sub_24.csv,4
258,-2.608195,-1.3657655,0.7580443,-0.1085363,0.9791166,0.17443985,0.6805204,0.9883087,-0.07260155,-3.6752588023652817,0.9102312716373955,-5.432544289864739,0,258,24,1,dws_1/sub_24.csv,4
259,-2.5042593,-1.432317,0.35372525,-0.07644134,0.9903695,0.11148172,1.7234788,-0.7091816,1.1166317,7.08274758781559,-1.263600912180223,0.2002188168465768,0,259,24,1,dws_1/sub_24.csv,4
260,-2.34353,-1.5303988,1.4325178,-0.03343278,0.99950254,0.031200677,1.310878,1.7025394,0.64002174,-0.33811476155344866,-0.3798702525388169,-0.5162645209467878,0,260,24,1,dws_1/sub_24.csv,4
261,0.08009744,-1.5335356,-0.040723085,0.010138452,0.99911416,-0.03351085,1.4016361,0.7708307,1.2006409,0.9208169265677753,-2.288956640407057,1.5500004991338907,0,261,24,1,dws_1/sub_24.csv,4
262,0.57822776,-1.4476444,-3.16308,0.07033299,0.99261886,-0.10376875,1.3017433,0.8305766,0.8936107,-2.726624059603715,-0.8210745282090214,3.4805201087027653,0,262,24,1,dws_1/sub_24.csv,4
263,0.73936653,-1.3954136,-2.3419724,0.10080083,0.98479897,-0.14012428,0.056214135,-1.2225242,0.56854284,-1.0095114847640845,-1.3500632257215328,2.4789268993725804,0,263,24,1,dws_1/sub_24.csv,4
264,0.6860256,-1.4319173,-2.4086754,0.11180885,0.9900736,-0.08898978,-2.345425,-1.3644845,0.16218154,-5.577037460671177,2.13622662563603,0.6208557311236628,0,264,24,1,dws_1/sub_24.csv,4
265,2.6792536,-1.4536766,-0.74845,0.08608021,0.99334145,0.074157864,-3.921347,-1.485929,-1.189855,0.5051579967155628,7.961534422841114,-0.9741228330146426,0,265,24,1,dws_1/sub_24.csv,4
266,-1.1596661,-1.3319708,0.16564327,-0.011606768,0.9716887,0.23706871,-2.564533,-0.7673036,-2.9606595,1.9752949000330375,6.525450428827092,-7.5342299958620815,0,266,24,1,dws_1/sub_24.csv,4
267,-3.144683,-1.2075492,0.72307914,-0.16721265,0.93460894,0.31344327,-0.825835,-1.8657649,-3.7464547,-6.588413074799248,3.5747512252163456,-3.8144894502795985,0,267,24,1,dws_1/sub_24.csv,4
268,-2.3210676,-1.0943187,0.9966744,-0.24521974,0.88874406,0.38722482,-0.5735696,-5.6038365,-2.7462487,-2.2272557030308873,-0.3159995583616769,-3.7072472393192357,0,268,24,1,dws_1/sub_24.csv,4
269,-2.8633118,-1.0341634,1.2063836,-0.21543974,0.8594251,0.46418536,0.45751268,-5.7787704,-2.0288868,-0.3529713984843676,-5.155765646365075,-4.428812371031142,0,269,24,1,dws_1/sub_24.csv,4
270,-2.6718473,-1.053422,1.4167588,-0.17861043,0.86916006,0.4607064,1.5423589,-4.44883,-1.7380168,0.16044032026325644,-1.5221191984202758,-7.173859806469459,0,270,24,1,dws_1/sub_24.csv,4
271,-2.8676128,-1.083929,1.6224782,-0.15577158,0.8838827,0.44178718,0.9815093,-4.0504007,-1.6276103,4.165980307905933,-1.825859809198038,-2.882676644442511,0,271,24,1,dws_1/sub_24.csv,4
272,-2.725308,-1.1146377,1.8139753,-0.16188192,0.8977669,0.40899625,1.4292433,-0.97135025,-1.0025349,5.164895190421179,-4.657178878826601,-0.2130420889167481,0,272,24,1,dws_1/sub_24.csv,4
273,-2.74079,-1.1658003,1.9147666,-0.16346376,0.9191254,0.3595478,0.90587753,-2.0762825,-0.04503548,2.480482479344449,0.34129714768770986,4.064129631424259,0,273,24,1,dws_1/sub_24.csv,4
274,-2.830576,-1.177421,1.9574568,-0.11173722,0.9236562,0.36577296,-0.12663159,-3.0736122,-0.48131096,-3.2204970725661903,3.2434728396549093,9.464885466567786,0,274,24,1,dws_1/sub_24.csv,4
275,-2.8196144,-1.140378,2.0585108,-0.13710509,0.90890145,0.39525735,-0.38815087,-0.09873688,-1.4858582,-3.157020002605865,-0.9146372116214833,4.929915386642902,0,275,24,1,dws_1/sub_24.csv,4
276,-2.5766115,-1.1485186,2.2728248,-0.21732357,0.9119501,0.34614742,1.9035146,1.6057229,-1.0628529,-5.4109134297601305,-5.174002645010728,-3.736684529386763,0,276,24,1,dws_1/sub_24.csv,4
277,-2.4708014,-1.1936517,2.3802464,-0.22851697,0.92983663,0.288503,0.21618621,-2.7369,0.3858099,0.6741212921065669,9.79471904680929,-2.31254321259328,0,277,24,1,dws_1/sub_24.csv,4
278,-2.7834811,-1.2238135,2.3598793,-0.12022301,0.9401996,0.31844935,1.3815494,-6.180889,0.15696268,6.437648268222405,-2.929856774377741,-1.593144876212608,0,278,24,1,dws_1/sub_24.csv,4
279,-2.8007967,-1.3256563,2.4505534,-0.08037963,0.97041297,0.2286361,1.8991156,0.94915515,0.117942765,3.9952610380041422,-2.2121298358218375,-2.919904316182677,0,279,24,1,dws_1/sub_24.csv,4
280,-2.6333761,-1.3755207,2.5614831,-0.09451542,0.9807854,0.16974923,0.89169544,0.678417,-0.02399031,0.3662527015616832,1.6800843706709998,0.9176360853141212,0,280,24,1,dws_1/sub_24.csv,4
281,-2.538418,-1.4378707,2.6324167,-0.07538207,0.99149066,0.10876471,1.2000623,0.4256028,0.8556708,-0.5609050496798875,-0.5261210382935325,-1.9225464828635817,0,281,24,1,dws_1/sub_24.csv,4
282,-2.669685,-1.4949431,2.4953053,-0.034228444,0.9970197,0.06786162,0.566785,0.07083604,0.6031682,-0.9370238958863366,-3.016507949607919,2.0474305096040233,0,282,24,1,dws_1/sub_24.csv,4
283,-2.6491694,-1.5070517,2.488731,-0.030505374,0.99820334,0.055889785,-0.20115212,0.67155737,-0.27710706,-0.40810322750368133,0.30292770723321716,2.8567550288871915,0,283,24,1,dws_1/sub_24.csv,4
284,-2.5997477,-1.4673986,2.530084,-0.052678153,0.994531,0.08862355,-0.8054475,-0.070898235,-0.38618568,0.3697962382412679,-3.0021059761084636,1.2710698861010543,0,284,24,1,dws_1/sub_24.csv,4
285,-2.6950698,-1.4419599,2.4141097,-0.056249708,0.99188006,0.115793094,-0.37162295,0.76829594,0.26367605,0.6762691070305928,-5.090686898789587,-0.6997241138893058,0,285,24,1,dws_1/sub_24.csv,4
286,-2.7869844,-1.4400872,2.288609,-0.044239327,0.9912625,0.12213395,-0.0040757135,0.42031282,0.2182359,-3.2253327210209006,-0.4017645856026541,0.1370820910764129,0,286,24,1,dws_1/sub_24.csv,4
287,-2.8532214,-1.4246356,2.2298381,-0.04278359,0.9897184,0.14000273,-1.0657825,-0.9016906,-0.103674784,-1.430922819317218,-1.607816173843201,4.795305813849316,0,287,24,1,dws_1/sub_24.csv,4
288,-3.017236,-1.2952932,2.160788,-0.032124236,0.9617511,0.26926,-3.6792216,-2.2577744,-0.3112269,4.204437352252883,2.6991255421171667,2.2563143238377448,0,288,24,1,dws_1/sub_24.csv,4
289,-2.9927807,-1.0973713,2.220394,-0.06935565,0.8906228,0.45151716,-3.5835607,1.1754124,-1.8126035,-2.2850249946223338,2.332314940881882,-1.495150479394567,0,289,24,1,dws_1/sub_24.csv,4
290,-2.7262728,-0.923537,2.427733,-0.24120407,0.79719144,0.5520253,-1.9852283,1.2987196,-3.600749,-8.036763642563523,12.36853951745046,2.888072373802657,0,290,24,1,dws_1/sub_24.csv,4
291,-2.623073,-0.80524397,2.564747,-0.34650338,0.72163665,0.600405,-0.6645377,-0.6862572,-1.6033142,0.7705908092895131,-1.6806601014979279,-0.2223117679298723,0,291,24,1,dws_1/sub_24.csv,4
292,-2.6359842,-0.8069277,2.6185482,-0.33060843,0.7216476,0.60760945,1.2712224,-1.5446706,-0.08861515,2.8245305664743343,-9.858697821517143,-1.0178024962597252,0,292,24,1,dws_1/sub_24.csv,4
293,-2.6368837,-0.9204912,2.6867695,-0.29827106,0.7966095,0.5266326,3.4965868,0.43699348,0.680064,1.7765685464798902,-12.178989584510022,2.4585494044399816,0,293,24,1,dws_1/sub_24.csv,4
294,-2.5083547,-1.157955,2.7402706,-0.23347536,0.91527563,0.32730958,4.2821784,0.9447343,3.3967137,6.24364964708269,-6.6778115766863335,-4.18994537149588,0,294,24,1,dws_1/sub_24.csv,4
295,-2.7669573,-1.3538247,2.582483,-0.07954575,0.9772126,0.19925785,1.4044008,-3.6507757,1.2793791,-2.3634042059687244,18.88152291913176,1.4166889277973436,0,295,24,1,dws_1/sub_24.csv,4
296,-2.7140973,-1.356319,2.73527,-0.088841416,0.9766675,0.19246748,-0.020216323,-0.24921113,-1.0888329,3.5570995287666496,-11.69350556452744,0.41787719044631855,0,296,24,1,dws_1/sub_24.csv,4
297,-2.6777878,-1.3749722,2.7731225,-0.08700074,0.98101276,0.17441694,0.65996766,-0.08213025,0.70506823,3.4592817599735777,7.939763595242605,-2.144774802222058,0,297,24,1,dws_1/sub_24.csv,4
298,-2.5973794,-1.3883349,2.8434653,-0.09424838,0.98334044,0.15391508,-0.00662826,0.33825618,-0.90336806,-8.92651158707909,10.250046671205585,-1.179588758102642,0,298,24,1,dws_1/sub_24.csv,4
299,-2.5228684,-1.3462012,2.948356,-0.1279582,0.9749147,0.18278342,-0.7572306,-0.97363764,-0.34562176,-1.290135001149374,-1.2963489669338588,1.5895107500857202,0,299,24,1,dws_1/sub_24.csv,4
300,-2.584816,-1.3037513,2.8772914,-0.14112137,0.9646367,0.22282298,-1.0635304,0.77984625,-0.5227424,0.7644004730824232,0.02774622807215716,3.8789206298612946,0,300,24,1,dws_1/sub_24.csv,4
301,-2.5844383,-1.1852759,2.857459,-0.19642524,0.9264342,0.3206733,-3.2615347,0.7602251,-1.1820856,1.3069495856018265,0.22650621738531163,1.8139045141933239,0,301,24,1,dws_1/sub_24.csv,4
302,-2.6206362,-1.0024605,2.7368362,-0.27070573,0.8431056,0.46529812,-2.8679848,0.19996887,-1.6478295,2.5536556339303402,-1.4593868484134396,-3.8342559870111588,0,302,24,1,dws_1/sub_24.csv,4
303,-2.5906124,-0.88288,2.853,-0.33025393,0.77222526,0.5421946,-1.384191,0.28840417,-1.0236306,-2.287628249483073,-0.18219971301250898,-0.1876074206921711,0,303,24,1,dws_1/sub_24.csv,4
304,-2.5589876,-0.8561319,2.707615,-0.36184585,0.7557715,0.54651314,0.641599,1.0361702,0.46507472,-1.6316852525852619,-0.7334899794047924,-0.45230626448140365,0,304,24,1,dws_1/sub_24.csv,4
305,-2.5191884,-0.98601097,2.9387374,-0.3213261,0.8333505,0.44882026,3.2278707,-0.19845073,1.8788168,1.3486772753116971,-5.6271374121970235,3.7929363042758864,0,305,24,1,dws_1/sub_24.csv,4
306,-2.5281458,-1.1870546,2.5994947,-0.2158332,0.92771274,0.30591524,3.030584,0.50501984,2.5537233,0.40750727546605486,-4.141807329974049,-1.1582335519485412,0,306,24,1,dws_1/sub_24.csv,4
307,-2.4456184,-1.3385794,3.2696745,-0.14696689,0.97290266,0.17679614,2.148616,0.19121617,0.3913467,-3.0691427836294167,7.842564401878886,3.15197128566574,0,307,24,1,dws_1/sub_24.csv,4
308,-2.1855845,-1.367833,1.3653955,-0.1649347,0.97964793,0.117208056,0.68933403,-1.676055,-0.35800564,4.3769050407723755,-7.173234888095715,-2.70127289724137,0,308,24,1,dws_1/sub_24.csv,4
309,-2.3090603,-1.404905,-3.7127023,-0.1223534,0.98599595,0.110258274,0.6645543,-3.057646,0.8132491,-1.1533631950637446,-2.594079042609357,-1.6476995309590297,0,309,24,1,dws_1/sub_24.csv,4
310,-2.173247,-1.417523,-2.4733868,-0.12556632,0.98847044,0.08481377,0.22086526,1.8972497,-0.8218206,-5.1165074238708,14.732477694436321,5.752291192088233,0,310,24,1,dws_1/sub_24.csv,4
311,-2.1000578,-1.3835433,-3.5651956,-0.15999253,0.98239744,0.0955718,-0.8319721,0.3858053,-0.026844084,2.2056033474518713,1.6890175238346492,-4.341874209295469,0,311,24,1,dws_1/sub_24.csv,4
312,-2.3265035,-1.3636982,1.3061492,-0.15076149,0.97882426,0.14039016,-1.1416221,0.74135214,0.094730735,-1.586458570013966,-2.699818984689519,2.499003538905692,0,312,24,1,dws_1/sub_24.csv,4
313,-2.4983406,-1.2685729,3.2712731,-0.17684118,0.95445395,0.23862746,-3.1656868,0.31756556,-0.8024969,0.2761486484346348,3.0358132639692115,1.5511068689062273,0,313,24,1,dws_1/sub_24.csv,4
314,-2.626673,-1.0851854,2.5742013,-0.2322957,0.88456655,0.40567654,-3.2265596,-0.7359674,-1.918901,2.261681309826105,-1.6858667827056044,-5.269904108287099,0,314,24,1,dws_1/sub_24.csv,4
315,-2.5704234,-0.9268366,2.9144087,-0.32202226,0.7997437,0.50615585,-1.986728,1.2174871,-1.474429,-0.06747508100879103,-2.652720735234743,-1.873364581263464,0,315,24,1,dws_1/sub_24.csv,4
316,-2.5479836,-0.88134086,2.7409546,-0.3583105,0.7712828,0.52558696,0.66791487,-0.4658789,0.13055556,-1.5676400924930831,-1.8578114860674335,-2.081199289194687,0,316,24,1,dws_1/sub_24.csv,4
317,-2.55201,-0.99793535,2.8759978,-0.2989541,0.8409439,0.4525128,3.096846,-0.67517114,1.6133329,1.0163325943010348,-6.485791111688231,-0.46633836410635854,0,317,24,1,dws_1/sub_24.csv,4
318,-2.6136665,-1.2171314,2.8221204,-0.17673238,0.93740964,0.29732302,3.7815337,-0.7324343,2.9348714,2.9981874265975024,-0.5153750366698656,-0.6619119505545413,0,318,24,1,dws_1/sub_24.csv,4
319,-2.6690538,-1.3868538,2.7260408,-0.08183405,0.9837081,0.16382062,1.669775,0.18282717,0.49567127,-1.357980172679558,4.346619735325668,3.9415530391789897,0,319,24,1,dws_1/sub_24.csv,4
320,-2.512795,-1.3982267,3.1201344,-0.10161445,0.9846814,0.13836347,0.24225555,-2.702786,-0.7564639,-0.8663586533213543,-1.926818171178268,-4.324825416469275,0,320,24,1,dws_1/sub_24.csv,4
321,-2.51189,-1.3887345,2.4143908,-0.10683859,0.98383075,0.1460662,-0.08494426,-0.46165153,-0.3166112,2.4848391458032233,7.527514447391859,-1.2000667814486443,0,321,24,1,dws_1/sub_24.csv,4
322,-2.3695652,-1.3807517,-3.3446317,-0.13075835,0.98157096,0.13591564,0.38289616,1.7845895,-0.09469529,0.8856738872650078,-0.057641498581997,-1.7116770065901812,0,322,24,1,dws_1/sub_24.csv,4
323,-2.2864728,-1.3842413,-2.2190018,-0.14209636,0.9831996,0.12076092,-0.6946919,0.030037284,-0.47639465,-8.96986098435189,2.3079875726171797,2.3237104290720927,0,323,24,1,dws_1/sub_24.csv,4
324,-2.5224152,-1.2522517,2.9685364,-0.17876689,0.9491922,0.25553578,-3.7313154,-1.7802982,-1.0652065,4.275460777913658,1.3463500967310233,1.2162691647516888,0,324,24,1,dws_1/sub_24.csv,4
325,-2.7017531,-1.0887619,2.8876188,-0.19999643,0.8862833,0.41934922,-2.6792452,0.4064383,-0.75714916,7.433579063811492,-5.232061491249263,-3.5632119831338462,0,325,24,1,dws_1/sub_24.csv,4
326,-2.5863657,-0.9713386,2.866845,-0.29524785,0.82579386,0.4802088,-1.4537399,2.442615,-1.3653351,-2.087559970666619,1.4121435407139755,-1.382894524408228,0,326,24,1,dws_1/sub_24.csv,4
327,-2.49755,-0.936747,2.9902022,-0.3577237,0.80499816,0.47219336,0.47514054,0.56709474,0.12849702,-3.424531645761044,3.748368020149371,-2.867366438508926,0,327,24,1,dws_1/sub_24.csv,4
328,-2.4966652,-1.0198925,2.819428,-0.31264335,0.8531427,0.42010993,2.3031204,-1.1900828,1.3918139,1.1492044031142579,-7.343605583540753,-1.0176639459503654,0,328,24,1,dws_1/sub_24.csv,4
329,-2.5537426,-1.2145807,3.1577091,-0.19478782,0.9360112,0.28918672,3.36344,0.34254086,2.7987907,2.200503710417759,-5.300823644017768,2.0261728859404,0,329,24,1,dws_1/sub_24.csv,4
330,-2.4901376,-1.3523215,2.3804176,-0.13171351,0.9768891,0.17176664,1.2564352,-0.2142745,-0.03517379,-1.3236976058915315,0.9072968678243668,2.558361242349161,0,330,24,1,dws_1/sub_24.csv,4
331,-2.413684,-1.3391671,0.7807028,-0.15199268,0.97293746,0.17163616,-0.11299567,-2.3500073,-0.5793777,-1.4194491229362436,7.95320782477442,3.1064261265683526,0,331,24,1,dws_1/sub_24.csv,4
332,-2.4540322,-1.3229831,3.4936523,-0.15635172,0.96967274,0.18920693,-0.44059217,1.2724602,-0.11933562,3.82274763909354,3.2538011165162564,5.300428062747332,0,332,24,1,dws_1/sub_24.csv,4
333,-2.374536,-1.2970738,2.9207542,-0.18705653,0.962592,0.19496183,-0.48860937,1.5019491,-0.29288006,-4.5939971515016325,1.0752999133356527,2.0984202130374348,0,333,24,1,dws_1/sub_24.csv,4
334,-2.4691112,-1.2315804,3.0857995,-0.20747483,0.9431324,0.26028824,-2.7737489,0.123383164,-0.38144308,-3.686753780373845,2.5275795650529207,-0.7120171569781129,0,334,24,1,dws_1/sub_24.csv,4
335,-2.645526,-1.060238,2.7262402,-0.23303019,0.8723595,0.42958832,-3.3796296,-1.0594006,-1.35402,7.631901281318056,-6.542018038357271,-3.509038594444637,0,335,24,1,dws_1/sub_24.csv,4
336,-2.6111991,-0.9318173,2.916122,-0.30026144,0.80298096,0.5149862,-1.2362351,1.7172043,-0.97581905,1.6224265043660204,-6.090317343614696,-0.8435812904326719,0,336,24,1,dws_1/sub_24.csv,4
337,-2.522124,-0.9151683,2.7453682,-0.3562851,0.79214174,0.49487615,0.7353301,1.0828295,0.15922756,-6.542714372586121,3.7033984862311407,-3.019336890265694,0,337,24,1,dws_1/sub_24.csv,4
338,-2.495151,-1.0222819,3.0106494,-0.31122667,0.853998,0.41830134,2.8635128,-1.3647928,1.8048917,1.2567273309286464,-5.007144883326913,0.5174390198566797,0,338,24,1,dws_1/sub_24.csv,4
339,-2.5973275,-1.2282302,2.6847572,-0.17613232,0.9413191,0.28641307,3.3287647,-0.991771,2.1789567,-0.06838207721243936,0.8982968245544644,4.308618649312221,0,339,24,1,dws_1/sub_24.csv,4
340,-2.4631138,-1.3405683,3.2538588,-0.14257413,0.9739254,0.17794272,1.1741197,0.72732764,-0.20119554,0.18548813986041382,-2.366198094939841,0.23771283005578836,0,340,24,1,dws_1/sub_24.csv,4
341,-2.4857974,-1.3705678,2.5984113,-0.12145762,0.9797228,0.15640435,0.52275383,-3.0914006,0.800026,3.9970115995652593,-0.3073722767412582,-2.697658081086391,0,341,24,1,dws_1/sub_24.csv,4
342,-2.5812519,-1.3932364,3.8222864,-0.09454159,0.9845586,0.14927593,-0.016711302,1.3325944,-0.45104152,-3.040334707189772,11.366977281749483,-0.027958824448714226,0,342,24,1,dws_1/sub_24.csv,4
343,-2.3354015,-1.3757794,-0.45168036,-0.13837948,0.9806661,0.13560674,0.35856637,1.1510906,-0.13361798,-1.8055354744210563,-3.643497834770944,-2.356674092401472,0,343,24,1,dws_1/sub_24.csv,4
344,-2.3851185,-1.372917,0.60938835,-0.13719809,0.98108923,0.14169587,-1.3535488,-0.3650644,-0.4969375,-9.09885242552716,4.812161279783304,3.5563765536287515,0,344,24,1,dws_1/sub_24.csv,4
345,-2.5802624,-1.1948452,3.725728,-0.1917953,0.92966396,0.31202242,-4.3103004,-1.9485185,-1.772709,4.633913547785448,2.48815570062041,-0.7701720192051066,0,345,24,1,dws_1/sub_24.csv,4
346,-2.6809936,-1.0044502,2.4509146,-0.2427531,0.84392977,0.47910184,-2.7476463,1.3787432,-1.0083252,5.660055302264468,-7.135356945327621,-3.0230071069009106,0,346,24,1,dws_1/sub_24.csv,4
347,-2.5446486,-0.90886825,3.1727545,-0.34080744,0.7892393,0.5114194,-0.45723653,1.410459,-1.0965924,-2.292503255449176,-0.6621313020057991,-1.1173569914164687,0,347,24,1,dws_1/sub_24.csv,4
348,-2.546598,-0.9349098,2.7763271,-0.3386619,0.80360985,0.4876576,1.4723482,-1.4000673,0.72563607,-1.4726307329863209,3.0970188989858336,-3.836424549517614,0,348,24,1,dws_1/sub_24.csv,4
349,-2.6231065,-1.0644841,3.0573134,-0.2333659,0.8759212,0.42529324,3.0302582,-2.5401337,1.8335074,1.5820863284387205,-8.317854005919934,0.24180541033865338,0,349,24,1,dws_1/sub_24.csv,4
350,-2.8130672,-1.2974334,2.836933,-0.09268063,0.96147853,0.2538163,4.487459,-1.6346223,1.9754133,3.3569853577664386,-4.551643614952353,3.581187061632814,0,350,24,1,dws_1/sub_24.csv,4
351,-2.689179,-1.451112,3.1044395,-0.049942896,0.99380946,0.107928224,1.4997797,0.7670261,0.005879879,-1.6005972178624648,-2.364625321981654,-0.7768551572594213,0,351,24,1,dws_1/sub_24.csv,4
352,-2.5929942,-1.4987155,-0.39891928,-0.03914085,0.9965372,0.060577616,1.1455779,-2.8511508,0.534359,5.992444729649121,5.542714680105208,0.8757711757439736,0,352,24,1,dws_1/sub_24.csv,4
353,-2.438833,-1.5402954,-1.5171647,-0.020450741,1.0003796,0.021211222,0.104662605,1.0029752,-0.19229354,-0.22687261550865492,9.663924380421623,3.018275617017044,0,353,24,1,dws_1/sub_24.csv,4
354,-2.4462633,-1.5033474,-1.1628616,-0.040320203,0.9969259,0.052918464,-0.9873325,0.3890282,-0.14920641,-4.717755132008252,-1.7812839895881212,1.9846141110736408,0,354,24,1,dws_1/sub_24.csv,4
355,-2.8282878,-1.421756,3.3466158,-0.05033599,0.98973197,0.14077348,-2.853709,-0.24279448,-0.6779787,-2.7356610292076122,2.183752085193744,5.501688982816863,0,355,24,1,dws_1/sub_24.csv,4
356,-2.7932868,-1.2094649,2.9785447,-0.1138974,0.93482006,0.33381936,-4.0462513,-1.8456345,-2.1971648,5.83587117555546,-3.028134033704163,-4.534173982310025,0,356,24,1,dws_1/sub_24.csv,4
357,-2.768822,-1.0135168,2.4665015,-0.19786882,0.84917337,0.49097878,-3.090424,0.7285759,-2.1831264,-1.4104649945806262,-3.5502046574337593,1.417925808133633,0,357,24,1,dws_1/sub_24.csv,4
358,-2.6211662,-0.8345727,-3.1930616,-0.33430603,0.74077,0.58227557,-2.180075,1.4868169,-2.4811723,-6.098141827442339,5.80723312813346,1.719996283956346,0,358,24,1,dws_1/sub_24.csv,4
359,-2.5909188,-0.8168359,-2.934251,-0.35384947,0.72895694,0.5854811,1.5207882,-1.1370039,0.46897125,0.28915855940707735,-5.36905246104767,2.4966776156432644,0,359,24,1,dws_1/sub_24.csv,4
360,-2.6431043,-0.93809134,-3.045077,-0.29431742,0.8068751,0.51421785,3.1203701,-0.8176154,0.44742888,3.66188548067264,-8.469081335406582,0.6597071031921884,0,360,24,1,dws_1/sub_24.csv,4
361,-2.4307613,-1.151179,-2.832138,-0.25436485,0.9123004,0.31752533,4.9879293,1.3336494,2.3990376,-2.2561905140945857,-16.3562969724684,0.06006224089353232,0,361,24,1,dws_1/sub_24.csv,4
362,-2.6287553,-1.3740704,-2.8731956,-0.102984756,0.9822905,0.16473667,1.2060211,-3.116658,2.1359456,-4.052230277535576,18.147248398486266,4.1506497704948275,0,362,24,1,dws_1/sub_24.csv,4
363,-2.5844157,-1.3304394,-2.9761631,-0.119540624,0.96990675,0.20486969,-1.1753597,0.7349947,-2.1443987,-3.686318201492436,-2.0198567031981924,5.2783121915378075,0,363,24,1,dws_1/sub_24.csv,4
364,-2.5243225,-1.2958398,-2.5637379,-0.1705556,0.96305823,0.21181285,-0.061082557,1.1923175,1.131531,15.70147512774413,-6.0960972263106585,-8.408549295836632,0,364,24,1,dws_1/sub_24.csv,4
365,-2.6146474,-1.3152074,-3.4687133,-0.101683535,0.9672657,0.23079477,-0.52784497,-1.4310892,0.50854796,0.8742581530054285,17.807096328959496,-1.3946415751400718,0,365,24,1,dws_1/sub_24.csv,4
366,-3.002862,-1.3245276,-1.2210331,-0.08685169,0.96978104,0.22868387,0.8210743,1.2602911,0.94841826,-4.571333521660838,-3.5979256728361966,-3.086780073706656,0,366,24,1,dws_1/sub_24.csv,4
367,-2.189526,-1.4154054,3.4584994,-0.01895997,0.98819566,0.15231615,1.7247417,-0.8915723,1.2837497,1.890194293107217,3.370557639195049,-0.43617985027042505,0,367,24,1,dws_1/sub_24.csv,4
368,2.7779088,-1.4918603,2.2180235,0.023261279,0.9967427,0.07746087,1.4941268,0.5160935,0.71443295,-2.3830429547358483,-3.0895734365972087,0.10082622403920148,0,368,24,1,dws_1/sub_24.csv,4
369,1.5020409,-1.4915903,1.3987826,0.07925023,0.996904,-0.011893883,1.9066079,-0.76503086,1.4456046,3.549228015877496,-2.986108776195272,2.304487334357921,0,369,24,1,dws_1/sub_24.csv,4
370,0.940891,-1.4054695,0.50185704,0.13994832,0.9865889,-0.08678909,0.99664474,0.88263303,0.7780139,-3.304139303285941,0.5966968546923898,4.244684008780109,0,370,24,1,dws_1/sub_24.csv,4
371,1.2109118,-1.3872552,0.9488009,0.16084053,0.9830661,-0.08645092,-0.6086156,0.21830481,0.17329459,-3.3637356554174307,0.09393125199523285,4.520465728436619,0,371,24,1,dws_1/sub_24.csv,4
372,1.2329662,-1.4121916,0.898911,0.15814696,0.9875692,-0.018559068,-2.4193802,-2.4834468,-0.30690747,-4.960992852540233,1.520855375515621,0.5069293735301194,0,372,24,1,dws_1/sub_24.csv,4
373,2.7860131,-1.4128356,2.7108395,0.11309226,0.98738605,0.108042456,-3.0422206,-3.1175475,-1.7111892,0.19266666886507894,6.076348696351894,-7.0632643285101055,0,373,24,1,dws_1/sub_24.csv,4
374,1.2286894,-1.3639382,1.210732,0.00893341,0.978891,0.20543464,-1.3187709,-1.0606515,-2.903662,-0.05189394160656386,4.430485514150308,-4.367926177171452,0,374,24,1,dws_1/sub_24.csv,4
375,-3.171358,-1.2869126,-3.0528116,-0.119969144,0.95968854,0.25347045,-0.6818613,-3.0961177,-3.0008123,-1.9460248564944624,0.5601740737153743,-1.8150671779257934,0,375,24,1,dws_1/sub_24.csv,4
376,-2.3903105,-1.2001811,-2.0580537,-0.17721094,0.9325216,0.31551996,-0.4189377,-4.437404,-2.04977,-0.9956620550179087,-1.5023100612132767,-3.3197138445440024,0,376,24,1,dws_1/sub_24.csv,4
377,-2.7775311,-1.1735928,-2.2396836,-0.18873927,0.9216803,0.33798623,0.77266234,-3.3302531,-1.2336752,2.3480280012555275,-4.6813245366945715,-5.104385449802782,0,377,24,1,dws_1/sub_24.csv,4
378,-2.5634868,-1.1881274,-1.8421421,-0.17552888,0.92830914,0.3295821,1.0467558,-3.4539082,-0.81003314,5.18688537172434,-4.034202718211544,-1.3024864527898599,0,378,24,1,dws_1/sub_24.csv,4
379,-2.6578526,-1.2809408,-1.7756419,-0.14852673,0.95763236,0.24483524,3.2197492,-2.5073323,0.24490403,3.744439898776303,-9.851867386979663,-4.368746076530156,0,379,24,1,dws_1/sub_24.csv,4
380,-2.6460335,-1.3646586,-1.6056719,-0.087930776,0.9789437,0.18366635,-0.5422099,-4.0129147,0.32566893,-1.8733540004829377,16.58870697405654,17.928422079507964,0,380,24,1,dws_1/sub_24.csv,4
381,-2.8297927,-1.3112268,-1.6117492,-0.089528725,0.96653175,0.24135992,0.34404913,-1.8394032,-1.2763841,-4.336121741376813,-7.336140593919486,-4.050783263175745,0,381,24,1,dws_1/sub_24.csv,4
382,-2.4766717,-1.3682386,-1.2628968,-0.11916079,0.9794819,0.16230375,1.1199567,0.41318655,-0.082943276,-1.9361940145183778,2.0876968035532917,-7.852412688362983,0,382,24,1,dws_1/sub_24.csv,4
383,-2.5919392,-1.3605859,-1.2851489,-0.11476518,0.9780149,0.1740067,-0.31935623,-3.698455,-0.3791687,2.87630421141125,8.985694999023341,6.5135404370350285,0,383,24,1,dws_1/sub_24.csv,4
384,-2.5499575,-1.4238709,-1.0760982,-0.07631489,0.98908746,0.12477803,2.000548,-2.254782,0.8263085,3.0317568230855025,-8.716496587516058,-6.672151162184587,0,384,24,1,dws_1/sub_24.csv,4
385,-2.7378266,-1.5053242,-1.1961794,-0.030440912,0.9980575,0.058966666,0.87676775,-0.94184536,0.45263934,-0.714175094633424,5.5565633863420825,3.1081012549630147,0,385,24,1,dws_1/sub_24.csv,4
386,-1.5194862,-1.5422639,0.065635175,-0.024683595,0.9996167,3.1486154e-05,1.5739226,-0.97684026,0.22617157,1.2910015906692953,-4.732104032900988,-1.9070858725397153,0,386,24,1,dws_1/sub_24.csv,4
387,0.117245436,-1.4952451,1.7801623,0.003186956,0.9972042,-0.07835607,1.5041039,-1.9018712,0.8078678,-1.2665065184303401,-2.1300514349548827,0.4484171785437111,0,387,24,1,dws_1/sub_24.csv,4
388,0.06932175,-1.4130669,1.822932,0.0196179,0.987694,-0.15560867,1.5126209,-1.6111212,0.26099432,-0.3101940888301215,-0.5544998691211225,-0.4528605405252881,0,388,24,1,dws_1/sub_24.csv,4
389,0.12232542,-1.3559737,1.9403965,0.015497282,0.9770054,-0.21293671,0.77413255,-0.801235,0.15594827,0.9579726329758904,1.986727967051546,2.3887052833980422,0,389,24,1,dws_1/sub_24.csv,4
390,0.04357016,-1.3395783,1.8555353,0.021893486,0.97338694,-0.22957708,-0.05103691,0.6269322,0.042510927,0.9249623574742465,-1.601878573053808,0.3890994611403066,0,390,24,1,dws_1/sub_24.csv,4
391,0.1840899,-1.3754909,2.0063448,0.020504996,0.9808383,-0.19150962,-1.4572136,-1.288373,-0.12520686,-2.1587790001695066,6.872530970310992,2.299005782327614,0,391,24,1,dws_1/sub_24.csv,4
392,-0.63841176,-1.4837565,1.2952657,-0.04040347,0.9971172,-0.07478662,-3.057393,-2.598809,-1.7435145,-8.137980815813592,6.232789300339391,4.653988681489443,0,392,24,1,dws_1/sub_24.csv,4
393,-2.1771154,-1.3894185,-0.14984691,-0.15330903,0.9818086,0.10449229,-3.350823,-1.4387474,-2.3760502,3.2990327882225414,3.055346078140602,-5.690965903257403,0,393,24,1,dws_1/sub_24.csv,4
394,-2.3231735,-1.2013328,-0.23559475,-0.25770277,0.934351,0.24946132,-2.3622568,-1.3923391,-2.7069554,-0.8272861166147838,6.067420321323249,-1.5487899891765038,0,394,24,1,dws_1/sub_24.csv,4
395,-2.3620868,-1.0064244,-0.19956261,-0.38127726,0.8433499,0.37680718,-2.3208559,-0.97334903,-3.332055,5.236872983319063,-4.460937305804979,-1.4443377889027351,0,395,24,1,dws_1/sub_24.csv,4
396,-2.3129005,-0.8501853,-0.11801189,-0.48276544,0.7526125,0.44901875,-0.7719126,-0.049966544,-1.7482171,2.5879951526828546,-4.237840135757701,-1.5613979956961084,0,396,24,1,dws_1/sub_24.csv,4
397,-2.3150194,-0.81352043,-0.072372794,-0.5074371,0.72626764,0.46372032,0.6764066,-1.4460571,-0.6158256,2.0039769403994745,-11.10744284163295,-2.431334391762147,0,397,24,1,dws_1/sub_24.csv,4
398,-2.352644,-0.86650366,-0.010181844,-0.46016783,0.7621781,0.4555006,1.8882749,-1.012155,0.92550004,4.123820227437878,-12.752396268003402,0.7639378190694881,0,398,24,1,dws_1/sub_24.csv,4
399,-2.2987947,-0.99405843,0.03274262,-0.40597227,0.83853406,0.36430204,2.2114737,0.6610952,1.9135857,1.4025321126736312,-9.073822517707772,-0.4411594813749484,0,399,24,1,dws_1/sub_24.csv,4
400,-2.3241615,-1.1540036,0.07030389,-0.29736447,0.91408986,0.27512038,2.5837195,-2.4599552,1.8828807,-4.681171242676217,10.77527909496782,1.6641420902030593,0,400,24,1,dws_1/sub_24.csv,4
401,-2.233967,-1.2556162,0.24871907,-0.2428613,0.950907,0.19148144,1.707691,-0.5649995,-0.052338384,-3.1375824557091594,1.9051829652699555,2.3411928408979357,0,401,24,1,dws_1/sub_24.csv,4
402,-2.2005527,-1.2825906,0.363914,-0.23083085,0.95881253,0.16660804,0.30149475,-2.7395291,0.1044846,8.252969147211392,7.079283407066183,2.0907832811214724,0,402,24,1,dws_1/sub_24.csv,4
403,-2.2818604,-1.2492234,0.37097132,-0.23873651,0.9485047,0.2059708,-0.9126266,0.0052336752,-1.0032593,-2.5204573380329403,4.769896023866446,3.5388219622383708,0,403,24,1,dws_1/sub_24.csv,4
404,-2.209683,-1.2265462,0.3754502,-0.27219826,0.94130427,0.20165977,0.8304125,1.5414011,0.49284136,-1.5544026065793852,-2.264781590710781,-6.1515101224159885,0,404,24,1,dws_1/sub_24.csv,4
405,-1.9510918,-1.2899878,0.5910737,-0.2560072,0.9611037,0.10145588,1.8473618,0.6121376,-0.19609305,-9.930234673166183,7.062414583876064,0.12417071876666722,0,405,24,1,dws_1/sub_24.csv,4
406,-1.822237,-1.2709277,0.7746408,-0.2861072,0.95514226,0.07547338,0.16688532,-2.206314,-0.36757106,1.2811463791876088,-2.234229392992108,-1.021852781510082,0,406,24,1,dws_1/sub_24.csv,4
407,-1.9653578,-1.2840592,0.6914658,-0.26216042,0.959599,0.107215315,-0.939668,0.36119127,0.49107575,5.874397689870057,-2.6139778074514637,5.650853853109493,0,407,24,1,dws_1/sub_24.csv,4
408,-2.195329,-1.2076946,0.39166632,-0.28622377,0.93424714,0.2089776,-3.5787692,0.80686504,-1.0398546,1.6559650085509499,0.7706001303508728,1.482126484029966,0,408,24,1,dws_1/sub_24.csv,4
409,-2.4184957,-1.0625637,0.11182991,-0.3241794,0.87415785,0.36392102,-3.4503922,1.2425854,-0.6344942,5.0737343255835246,-2.2154907765136276,-4.745882825545347,0,409,24,1,dws_1/sub_24.csv,4
410,-2.3940382,-0.9066038,0.020107985,-0.4172398,0.7870482,0.45284504,-2.6551397,1.9847121,-1.883775,0.01204034513827297,0.8296949023761218,0.7514612333429963,0,410,24,1,dws_1/sub_24.csv,4
411,-2.299294,-0.8240355,0.0059860945,-0.5083382,0.7339112,0.45155072,-0.31579334,1.552665,-0.06717607,-5.721664200136308,1.0139446408633273,-3.670269492980687,0,411,24,1,dws_1/sub_24.csv,4
412,-2.31387,-0.8888459,-0.0019734502,-0.463062,0.7768416,0.42685443,1.7831073,-1.771456,1.7137443,0.08655031366014179,-8.38448869790441,1.263965779910201,0,412,24,1,dws_1/sub_24.csv,4
413,-2.3094828,-1.0904149,0.08822027,-0.34118178,0.8858342,0.31128544,4.6273985,0.20136881,2.6133456,3.4306877893883465,-9.80213986788774,0.5899006340557423,0,413,24,1,dws_1/sub_24.csv,4
414,-1.9508681,-1.2828372,0.3641736,-0.26571852,0.9599503,0.10373198,2.3427172,1.8932438,0.9458082,-0.9477360731490743,3.318392037921238,-0.5994476481627428,0,414,24,1,dws_1/sub_24.csv,4
415,-1.8620554,-1.262245,0.5180207,-0.28903064,0.95201963,0.08908707,-0.04472263,-3.1595163,-1.219063,-5.097975777209275,5.009430873283777,6.423987667387525,0,415,24,1,dws_1/sub_24.csv,4
416,-1.9326398,-1.2459093,0.53031915,-0.29937828,0.94807464,0.11195259,0.070615046,0.5169326,0.35025162,0.1780869462515904,2.3044960065274807,0.6845336113718701,0,416,24,1,dws_1/sub_24.csv,4
417,-1.8599035,-1.2406679,0.51944584,-0.31059545,0.94575596,0.09269542,-0.20052296,1.5015678,-0.70699364,-0.0672128517643639,6.029194258318667,0.0986316157577406,0,417,24,1,dws_1/sub_24.csv,4
418,-1.8148824,-1.2100297,0.54996216,-0.34195948,0.9357205,0.0854042,0.18658572,-0.24070364,-0.11032206,-7.670467253297321,-2.2694118644246375,-2.232864823908485,0,418,24,1,dws_1/sub_24.csv,4
419,-1.9328247,-1.2066996,0.45409054,-0.33410448,0.9345431,0.12581025,-1.8793101,-1.0149091,-0.20142783,-2.6403483549042397,1.0065725851805487,4.612016255197683,0,419,24,1,dws_1/sub_24.csv,4
420,-2.2709951,-1.0795406,0.1503346,-0.3599963,0.88151854,0.30401683,-4.222528,-0.7043742,-1.0971897,9.294525421318653,3.7867498667958177,-1.1990626157829385,0,420,24,1,dws_1/sub_24.csv,4
421,-2.3621223,-0.9138751,-0.024868786,-0.428829,0.7921053,0.43459782,-2.8064733,2.5009127,-1.1704793,2.225047724761826,-3.204354856906255,-1.893520711532727,0,421,24,1,dws_1/sub_24.csv,4
422,-2.2790132,-0.8190957,-0.06167543,-0.52005225,0.73030347,0.44344163,-0.63009095,1.3054156,-0.7047576,-4.066940763878526,2.448166845184489,-2.705111147382128,0,422,24,1,dws_1/sub_24.csv,4
423,-2.258018,-0.8461121,-0.04077232,-0.5101412,0.74895805,0.42189586,1.3410969,-0.5800041,1.1835153,-1.3752301221070298,-4.093339301663013,-2.492731208320983,0,423,24,1,dws_1/sub_24.csv,4
424,-2.270233,-1.0025392,-0.017059982,-0.41494763,0.8425317,0.34503505,3.109974,-0.16885652,2.6749058,2.130628970793662,-9.236639564291954,4.199320108754194,0,424,24,1,dws_1/sub_24.csv,4
425,-2.0034893,-1.1905724,0.186499,-0.3339947,0.92892045,0.1564695,3.362462,3.099084,1.3415354,-2.197649096662662,1.3076982813440836,0.07565992799766026,0,425,24,1,dws_1/sub_24.csv,4
426,-1.692142,-1.2306575,0.4307409,-0.33296317,0.94242144,0.04013075,0.73050857,-1.1374252,-0.20215829,-2.762052450246241,2.6500949080816616,-4.065550736113263,0,426,24,1,dws_1/sub_24.csv,4
427,-1.8222173,-1.2304456,0.47424987,-0.3220739,0.9427896,0.08290821,0.18249038,-3.2221904,0.019093499,0.2516511224324255,5.35911335302935,3.4835079833952443,0,427,24,1,dws_1/sub_24.csv,4
428,-1.8365339,-1.2224066,0.47889832,-0.33055687,0.939877,0.089650154,-0.13853289,1.3492768,-0.21248916,6.37201097453656,4.718950304840174,-1.3302403189925769,0,428,24,1,dws_1/sub_24.csv,4
429,-1.7566882,-1.2233533,0.51128966,-0.33337614,0.9402061,0.06281744,0.40888777,0.5459231,-0.009999335,-2.6552324635330704,-0.6193960618514701,-1.6493951974585397,0,429,24,1,dws_1/sub_24.csv,4
430,-1.8519442,-1.1815782,0.3915667,-0.36514336,0.9252904,0.10608497,-2.8141615,-0.3222457,-1.119717,-5.382135055684359,6.098550035498833,3.3792871365344883,0,430,24,1,dws_1/sub_24.csv,4
431,-2.252919,-1.0454706,0.025322616,-0.3901303,0.8649972,0.31517342,-4.125654,-1.3281531,-0.54417145,9.97252541169437,-4.8044479410143905,-3.1357955304250202,0,431,24,1,dws_1/sub_24.csv,4
432,-2.3278186,-0.9280751,-0.14363146,-0.43382686,0.80079675,0.41263247,-2.090372,3.2405145,-0.4927125,3.9726369370540793,-9.579735894885957,-1.3300555699682293,0,432,24,1,dws_1/sub_24.csv,4
433,-2.2312865,-0.8821968,-0.19979262,-0.5039946,0.77155554,0.38807288,-0.17247744,1.8302426,0.1826836,-4.510022259411211,6.235655652860342,-2.121091979630358,0,433,24,1,dws_1/sub_24.csv,4
434,-2.1671877,-0.95176876,-0.17657405,-0.47775716,0.81523466,0.3284133,1.9323902,-0.14307573,1.7514802,-4.5210072558762295,-3.130325356061871,-1.7390245596963132,0,434,24,1,dws_1/sub_24.csv,4
435,-2.2039328,-1.1308821,-0.08642316,-0.34564665,0.9039968,0.25019035,3.249852,-3.1964705,2.5251207,0.3966953685029867,-7.767548548988774,4.591658186602751,0,435,24,1,dws_1/sub_24.csv,4
436,-2.0549326,-1.2616997,0.103054434,-0.26784086,0.9530936,0.14196318,1.617105,1.6034453,0.39176637,-4.587669101887842,-2.4012452176403536,1.169282457178203,0,436,24,1,dws_1/sub_24.csv,4
437,-1.9837399,-1.2914243,0.19739005,-0.2530818,0.9608813,0.109822564,0.41306224,-3.089782,0.71687615,7.049800150977804,1.0861816822339658,0.1717645494330705,0,437,24,1,dws_1/sub_24.csv,4
438,-2.092098,-1.3144944,0.19853282,-0.21942246,0.9674523,0.12586546,-0.22202995,0.7168035,-0.43181455,4.377527670625908,13.722045526511573,5.783472603156201,0,438,24,1,dws_1/sub_24.csv,4
439,-1.9960245,-1.2495642,0.16399646,-0.28777435,0.94901615,0.13095868,-0.7877428,1.9897618,-0.74168426,-3.2324543017050527,-2.549498843699529,-5.426142394401865,0,439,24,1,dws_1/sub_24.csv,4
440,-2.0160666,-1.2661619,0.13778138,-0.2705367,0.95382184,0.12873206,0.34467265,-0.3581434,0.64945155,-4.396258795270409,0.27695036057175,3.005785218082869,0,440,24,1,dws_1/sub_24.csv,4
441,-2.119035,-1.2177854,0.03216803,-0.29412186,0.9382011,0.18139097,-2.6918647,-0.5032137,-1.4416136,-0.9789750194824363,5.740987638174997,4.016160110110357,0,441,24,1,dws_1/sub_24.csv,4
442,-2.4061036,-1.0417726,-0.21322942,-0.34072152,0.8637228,0.37292182,-3.928651,-1.1762872,-1.0336906,8.91801623066674,-2.9703127431368936,-2.983135696352657,0,442,24,1,dws_1/sub_24.csv,4
443,-2.4779913,-0.8949473,-0.3186335,-0.38375747,0.77968574,0.4935534,-2.3315082,1.3666666,-0.96007454,-0.7100273437785276,-5.857686643625696,-1.211461445391144,0,443,24,1,dws_1/sub_24.csv,4
444,-2.4272215,-0.82566154,-0.34263015,-0.44473064,0.73574793,0.51238817,-0.043996155,0.6804256,-0.07486458,-2.7752014871920774,-1.6115394846965188,-0.18383984513222315,0,444,24,1,dws_1/sub_24.csv,4
445,-2.4317114,-0.91686344,-0.31591517,-0.39698094,0.79290855,0.46072966,2.6993694,-1.0926634,1.6357765,-1.990842190616811,-4.732938899911942,0.4834211335028329,0,445,24,1,dws_1/sub_24.csv,4
446,-2.4240863,-1.117534,-0.2555461,-0.28688827,0.8996901,0.33042586,3.958795,-0.65811336,2.458571,1.3908290105555705,-9.04436610250433,2.3939523926585347,0,446,24,1,dws_1/sub_24.csv,4
447,-2.279986,-1.3314706,-0.08964735,-0.18048966,0.9712852,0.15439749,3.135737,0.36403835,1.5000343,-0.7345847331760946,10.344987611049426,-0.034801309640666175,0,447,24,1,dws_1/sub_24.csv,4
448,-1.9513813,-1.3863413,0.22618026,-0.16949613,0.98318785,0.069866136,0.7015234,-0.80644166,-0.158814,5.713297402041916,-8.386017640956078,1.5102448247363127,0,448,24,1,dws_1/sub_24.csv,4
449,-2.0541668,-1.4316571,0.27754575,-0.123833746,0.9900048,0.06235358,0.7048106,-3.4249458,1.2181044,4.141048455304107,-2.948175390082303,-0.6861383560623779,0,449,24,1,dws_1/sub_24.csv,4
450,-1.9163152,-1.4573038,0.4227568,-0.10619938,0.99365723,0.0381667,0.15545574,2.5979598,-0.3953209,-5.025557032603097,16.77019262335816,-0.3019568367597881,0,450,24,1,dws_1/sub_24.csv,4
451,-2.003049,-1.4612045,0.25035092,-0.10006866,0.9938049,0.042569026,-0.29104632,-0.19102074,0.99342513,0.15156794142810648,-3.2079226325173216,-0.821258233986244,0,451,24,1,dws_1/sub_24.csv,4
452,-2.1102402,-1.504694,0.1745677,-0.055342197,0.9980855,0.036937714,0.55935836,-0.21744007,0.40491718,-7.90390032959665,0.2480559215574128,-1.4798926037438285,0,452,24,1,dws_1/sub_24.csv,4
453,-1.9924536,-1.5348295,0.30385345,-0.03418018,0.9993871,0.010850251,0.11229988,-0.60659134,0.6567811,0.7630637145376917,-4.359134136496007,4.145720613652202,0,453,24,1,dws_1/sub_24.csv,4
454,-2.8172112,-1.4980485,-0.46702462,-0.022551626,0.9969734,0.07018708,-2.2314591,-1.5249374,-0.48331493,0.2909486787262165,4.125198524051061,4.598322737196905,0,454,24,1,dws_1/sub_24.csv,4
455,-2.8481207,-1.3556969,-0.37754887,-0.059386536,0.97781277,0.20596077,-2.487691,-2.7428787,-1.6060593,0.6708275049622427,5.630546401854881,-5.635011928808944,0,455,24,1,dws_1/sub_24.csv,4
456,-2.597939,-1.2120109,-0.020263314,-0.18453915,0.93545777,0.29583907,-1.0839038,-1.0787237,-4.3592296,-8.289360473448646,9.792587719851012,-1.9170109708546386,0,456,24,1,dws_1/sub_24.csv,4
457,-2.3622918,-1.0610117,0.34874928,-0.34042877,0.87353545,0.35186958,-0.16002841,-3.3140042,-3.2164757,-4.37690657585361,6.457452425452045,-1.9415288654556573,0,457,24,1,dws_1/sub_24.csv,4
458,-2.4273944,-0.9926519,0.49073747,-0.36034384,0.8371399,0.4098426,0.44073844,-3.2167296,-1.7428418,6.3540502902474625,-3.877845812956637,-0.19180028818632208,0,458,24,1,dws_1/sub_24.csv,4
459,-2.3926675,-0.98262876,0.6829268,-0.37594646,0.8321037,0.40892792,1.7403102,-2.4876013,-1.3275387,2.646265476054475,-6.771431129069391,-2.0773420371681386,0,459,24,1,dws_1/sub_24.csv,4
460,-2.4053898,-1.0242727,0.83811253,-0.35032374,0.8545374,0.38304874,1.7958386,-2.7890902,-0.34255397,3.424050830246538,-6.796613193167052,-2.3867601249283323,0,460,24,1,dws_1/sub_24.csv,4
461,-2.4000707,-1.1133893,0.9807626,-0.30013287,0.89690834,0.32552305,2.469976,-2.1611938,0.847729,3.5011950061615065,-6.902859233351202,0.4681521534557407,0,461,24,1,dws_1/sub_24.csv,4
462,-2.5692854,-1.2009734,0.9628538,-0.19130687,0.93259823,0.3041516,-0.20677307,-4.598873,1.0277905,-3.792472170377003,8.926079536046121,12.332166687121505,0,462,24,1,dws_1/sub_24.csv,4
463,-2.8056192,-1.1628636,0.96985304,-0.14121926,0.9179174,0.37265176,-0.15779756,-2.7107663,-1.3342134,-3.568329179449703,-3.5489959126033153,2.7242015479998423,0,463,24,1,dws_1/sub_24.csv,4
464,-2.609075,-1.1715704,1.1136596,-0.1846873,0.92141557,0.34109527,0.4273124,1.903621,-0.30904114,3.123974531423117,9.068800382130878,-8.604474166321376,0,464,24,1,dws_1/sub_24.csv,4
465,-2.6752684,-1.1495426,1.0901005,-0.2049349,0.9126795,0.35450095,-0.5409673,-0.74020356,-0.1629066,1.6152191148158965,-3.212133333601624,0.49896593361749475,0,465,24,1,dws_1/sub_24.csv,4
466,-2.6308682,-1.1903697,1.1124282,-0.1525157,0.92820805,0.3381634,1.7445776,-3.0262518,0.68542355,-2.7330483584779186,-5.759780958883756,-9.244049648508788,0,466,24,1,dws_1/sub_24.csv,4
467,-2.9956558,-1.2735829,1.0677308,-0.08262809,0.9565031,0.2812997,0.9938524,-0.7196528,0.66424495,-0.4066403747541355,3.0581027011492363,0.7594532055995974,0,467,24,1,dws_1/sub_24.csv,4
468,-2.6514072,-1.3235495,1.0767272,-0.062542416,0.96931946,0.2364135,1.1741319,-1.7018578,0.005553335,5.7276890756887875,-2.071098135309388,3.165829886920215,0,468,24,1,dws_1/sub_24.csv,4
469,-3.452534,-1.3839102,1.0776141,-0.026746467,0.9828656,0.18420713,1.0477617,-1.3906075,0.56403214,2.9961468083550966,-1.0249994363452077,3.317912831699923,0,469,24,1,dws_1/sub_24.csv,4
470,1.1902492,-1.4343009,0.86323285,0.007489413,0.99053985,0.1354124,0.9823726,-0.075420946,0.6409824,1.7644367577406381,-1.7266042188427417,0.969180212449038,0,470,24,1,dws_1/sub_24.csv,4
471,3.2030444,-1.4756186,0.5639877,0.040653095,0.99570143,0.087377,0.9935833,-0.74296373,0.5058518,-3.068332942757697,1.1644068452980911,0.9111416935045579,0,471,24,1,dws_1/sub_24.csv,4
472,1.686811,-1.5109771,-0.23045355,0.05340098,0.99818313,0.021345645,1.4836664,-1.4231915,0.027731225,-1.665409128425041,-3.2500017130212338,-0.6309703297754948,0,472,24,1,dws_1/sub_24.csv,4
473,0.9713526,-1.4911052,-1.2148054,0.06236781,0.9968481,-0.055845305,1.4126542,-0.56478447,0.3580675,2.611551131649264,-0.4014326613679222,-1.0230755386974169,0,473,24,1,dws_1/sub_24.csv,4
474,0.5035529,-1.4221663,-1.5243111,0.07666184,0.98930377,-0.12330203,1.2205381,-0.7418089,0.24691291,2.8285225629273776,1.025914047735015,-0.2709238462826409,0,474,24,1,dws_1/sub_24.csv,4
475,0.4815626,-1.389229,-1.4833646,0.085197166,0.98300475,-0.1644436,0.23271494,-0.8750958,0.47880292,1.2556893185341125,2.1714970348585627,2.3858639708796385,0,475,24,1,dws_1/sub_24.csv,4
476,0.6785526,-1.3904645,-1.4667156,0.0990458,0.9846431,-0.14368595,-1.0763426,-0.6936511,-0.018913344,-4.763798158546156,6.036983723243475,1.6042747973905076,0,476,24,1,dws_1/sub_24.csv,4
477,0.23294997,-1.5133247,-0.92048866,0.03611034,0.99810255,-0.05063416,-2.6745322,-1.4163046,-2.0330613,-10.157708745442106,3.344188742066128,-2.6246634475453408,0,477,24,1,dws_1/sub_24.csv,4
478,-2.5896983,-1.4606729,1.9513426,-0.06706046,0.9923866,0.10330076,-2.8732255,-4.689736,-1.9998723,1.694305139470258,6.140703765085043,-5.805917927863522,0,478,24,1,dws_1/sub_24.csv,4
479,-2.631051,-1.2931408,2.0664024,-0.122217365,0.9636063,0.23812765,-1.9638655,-3.6283996,-2.2256527,-3.2880694912095803,3.3756920359464564,-4.780838483984481,0,479,24,1,dws_1/sub_24.csv,4
480,-2.6076193,-1.1438637,2.31006,-0.22113657,0.9084223,0.35444123,-2.2842538,-1.8224049,-2.9916272,-1.8030881249288035,0.34181826275423666,-3.5013212261655715,0,480,24,1,dws_1/sub_24.csv,4
481,-2.6012125,-0.9822716,2.4128816,-0.2784085,0.83336806,0.47775102,-1.4311144,-3.4380112,-2.406669,2.662665890088905,-0.9261241444813899,-2.1882350597290916,0,481,24,1,dws_1/sub_24.csv,4
482,-2.660284,-0.91072905,2.5537555,-0.2907175,0.7889692,0.54153585,-0.07391173,-1.9044976,-1.6383858,3.947420651689982,-6.723958040902659,-1.2588329300765333,0,482,24,1,dws_1/sub_24.csv,4
483,-2.6342444,-0.9075035,2.6536663,-0.29607916,0.7886242,0.53887177,1.1443167,-1.0181115,-0.67268085,2.8949715912353366,-8.437851094452677,-0.9239524329285119,0,483,24,1,dws_1/sub_24.csv,4
484,-2.6115098,-0.9813459,2.7070494,-0.28385523,0.8311128,0.47888452,2.0388956,-0.38100666,0.54942596,2.465262977376082,-8.129883475599765,-0.9618835042499237,0,484,24,1,dws_1/sub_24.csv,4
485,-2.6402996,-1.1098706,2.781428,-0.2128915,0.89558864,0.39004064,2.5565312,-1.8868685,1.23227,0.40098080774759587,-1.8164766644113837,3.3040307771488804,0,485,24,1,dws_1/sub_24.csv,4
486,-2.704822,-1.2332482,2.6878262,-0.14148292,0.9437123,0.30008543,1.7330039,0.46251065,1.0627686,-4.27693297344398,5.788320215660335,1.0554128266624896,0,486,24,1,dws_1/sub_24.csv,4
487,-2.589901,-1.3206264,2.8619149,-0.12895453,0.9688111,0.21085037,1.7499776,1.3879645,0.17380677,1.6874030314514734,1.358267816066256,1.1856760590754796,0,487,24,1,dws_1/sub_24.csv,4
488,-2.3533845,-1.3689264,2.8657014,-0.14287353,0.9797074,0.14127645,0.7414264,0.20373827,-0.18902895,3.2148240323534507,-4.3903280230311434,3.005540006007293,0,488,24,1,dws_1/sub_24.csv,4
489,-2.2920828,-1.3693613,3.2714553,-0.14968236,0.97992104,0.1321643,0.11877933,-1.3214145,-0.47778141,-2.1667976632475274,3.9845149501803414,0.1272005514220147,0,489,24,1,dws_1/sub_24.csv,4
490,-2.28401,-1.3214498,0.3263843,-0.18660995,0.96878415,0.16168466,-1.0856011,-0.50139886,-0.9086144,-1.4366029623083567,9.347084296723349,1.1676568630058815,0,490,24,1,dws_1/sub_24.csv,4
491,-2.40629,-1.2864811,3.6132965,-0.1891906,0.96011037,0.20708552,0.025681078,-0.5328456,0.5176232,6.258345385527599,-6.989032346926856,-3.800271927773346,0,491,24,1,dws_1/sub_24.csv,4
492,-2.3058867,-1.3494226,1.0253226,-0.16167861,0.9756223,0.14794412,1.4382744,1.32883,0.36128283,-5.606935553720572,2.810693447114138,-0.006524549737174576,0,492,24,1,dws_1/sub_24.csv,4
493,-2.1801662,-1.357061,-2.7349532,-0.1744238,0.9770813,0.12128593,-0.5301055,-0.5000458,-0.37239534,-0.6200748516581629,0.9238590970522959,3.4820321562648355,0,493,24,1,dws_1/sub_24.csv,4
494,-2.4314568,-1.3022367,3.224817,-0.1732812,0.9644821,0.20110047,-2.3044498,-0.12377977,0.20496796,3.7250716962883454,-1.7104538626593226,6.724279209942368,0,494,24,1,dws_1/sub_24.csv,4
495,-2.683481,-1.1713071,2.5586927,-0.17155954,0.92088425,0.3487717,-3.600761,-0.17350192,-0.27581072,1.8911861498539866,-3.344536644102734,-2.0663632211601763,0,495,24,1,dws_1/sub_24.csv,4
496,-2.747584,-1.0085163,2.7166038,-0.20487386,0.84644,0.49245483,-2.6878836,0.7754076,-1.0514574,-3.0961782186253544,2.4516912856371755,-0.21841185139783456,0,496,24,1,dws_1/sub_24.csv,4
497,-2.6525793,-0.8927233,2.71322,-0.29498732,0.7785071,0.55345196,-1.2147408,0.931537,-1.5857396,0.11157532633886116,3.5515040850118136,0.12133917226617597,0,497,24,1,dws_1/sub_24.csv,4
498,-2.5848544,-0.8536377,2.6405244,-0.346507,0.75391895,0.55857813,0.6963315,0.32634354,-0.24238402,-0.7931746635260912,-4.4385816103585,0.5031509570928296,0,498,24,1,dws_1/sub_24.csv,4
499,-2.5398893,-0.9670027,3.0439746,-0.32252112,0.8231658,0.4673581,3.5311146,-0.53647256,1.3187845,-4.272919071381786,-9.525998848925397,3.142869467170104,0,499,24,1,dws_1/sub_24.csv,4
500,-2.516026,-1.2031138,2.4454954,-0.20990318,0.9330299,0.2915696,4.0285053,0.63861567,3.1847394,3.259344845026629,-2.5111189392142705,-2.067445678049498,0,500,24,1,dws_1/sub_24.csv,4
501,-2.555625,-1.4035912,3.5755658,-0.09140632,0.98636734,0.13950014,2.265767,-1.8521764,1.2002752,1.5004293912173465,7.3197745783473165,1.3027640019150593,0,501,24,1,dws_1/sub_24.csv,4
502,-2.404206,-1.4435663,0.64254993,-0.086498365,0.99162346,0.09302375,0.3930782,-2.7059202,-0.65524685,0.5197395069148603,-7.477455577533224,2.588137441987099,0,502,24,1,dws_1/sub_24.csv,4
503,-2.4648204,-1.434004,-0.4672838,-0.08440314,0.99084073,0.10651327,-0.37132266,-0.8008419,0.15072866,3.5028843267118424,6.556216627452166,-1.0088937415892931,0,503,24,1,dws_1/sub_24.csv,4
504,-2.4440098,-1.4087293,1.4410813,-0.10458513,0.9867039,0.122352466,-0.46955675,2.097675,-0.60597384,-4.648594869485708,6.865546642850984,0.30165778414519806,0,504,24,1,dws_1/sub_24.csv,4
505,-2.3765066,-1.3795861,2.645507,-0.13066547,0.981957,0.13820753,-0.3900799,0.67063016,0.07483053,-4.342177041856285,-0.7864910092473468,-1.231245276235002,0,505,24,1,dws_1/sub_24.csv,4
506,-2.4404206,-1.3817348,3.3481271,-0.12227793,0.9821401,0.14279065,-0.11787896,-0.46668118,-0.061120562,-4.500097690274978,0.605309172667329,3.57543555903405,0,506,24,1,dws_1/sub_24.csv,4
507,-2.562686,-1.2978288,2.7506204,-0.14555179,0.9628187,0.22662719,-3.118249,-1.5056512,-1.1270652,1.947526604415976,2.61301986961659,1.344526124263754,0,507,24,1,dws_1/sub_24.csv,4
508,-2.7226832,-1.0906329,3.0343611,-0.19051225,0.88719475,0.42111212,-3.7559583,-0.11530548,-1.135184,6.777816541622646,-4.316403993736544,-2.506256524456502,0,508,24,1,dws_1/sub_24.csv,4
509,-2.6577668,-0.94415295,2.6546402,-0.27084044,0.8097629,0.51992506,-1.7998476,2.1470358,-1.100397,-2.623608745937827,-1.400849743738953,-0.5552536341400564,0,509,24,1,dws_1/sub_24.csv,4
510,-2.5535197,-0.8981062,3.0905805,-0.34659696,0.7822633,0.5178774,0.5714447,0.6241496,-0.44350523,-2.624356624141057,5.218930311174774,-3.612746958649608,0,510,24,1,dws_1/sub_24.csv,4
511,-2.5350046,-0.97768724,2.620931,-0.31854877,0.8293161,0.459459,2.5501895,-1.3279916,0.8923905,-2.3087097266075536,-5.410255758542753,1.2950780762684069,0,511,24,1,dws_1/sub_24.csv,4
512,-2.5188346,-1.1809726,3.592142,-0.22130479,0.9246178,0.30849636,4.520494,-0.096089184,2.5766325,0.6508816592641913,-5.798744741096936,1.3629733313151442,0,512,24,1,dws_1/sub_24.csv,4
513,-2.40735,-1.3982837,0.028770864,-0.11501943,0.98572636,0.12790829,2.5552096,-2.725016,0.8770876,-1.2717211009186107,1.7336569443041783,3.4348508301630623,0,513,24,1,dws_1/sub_24.csv,4
514,-2.3356147,-1.4065275,-3.457878,-0.11716106,0.9859493,0.1132833,-0.11984253,-3.1050143,-0.691325,4.833503806682056,-2.2606278769769212,-2.3757862323047396,0,514,24,1,dws_1/sub_24.csv,4
515,-2.325708,-1.4188441,-2.500142,-0.11001904,0.9886748,0.10385094,0.7036251,0.48864037,0.2849934,4.344951991538152,6.870075163655656,-3.3895934565264985,0,515,24,1,dws_1/sub_24.csv,4
516,-2.1076696,-1.4077779,-2.820396,-0.13960662,0.9866617,0.0817391,-0.19650334,0.9769005,-0.99456066,-8.722984704241835,5.485348403831913,2.8387695518022467,0,516,24,1,dws_1/sub_24.csv,4
517,-2.1834552,-1.369477,-2.5548465,-0.16272019,0.9797736,0.115638405,-0.6991114,-2.2489345,-0.08689759,-1.3215911576298651,-3.062838114045968,1.0134781264736914,0,517,24,1,dws_1/sub_24.csv,4
518,-2.463458,-1.3203665,-2.936241,-0.15677172,0.9689483,0.1928458,-2.0532923,-1.0726209,-0.4567778,2.8265105409555455,-1.17819288079843,3.1265110788093238,0,518,24,1,dws_1/sub_24.csv,4
519,-2.640967,-1.1804676,-2.96688,-0.18083662,0.9247086,0.3339776,-3.0827124,-0.57452667,-0.7456298,4.879440546409801,-4.020867671841795,-3.1286922762991742,0,519,24,1,dws_1/sub_24.csv,4
520,-2.6843789,-1.0614704,-3.09439,-0.21780252,0.87306035,0.43690044,-1.5637627,0.821521,-0.8032297,-1.2575247795228401,4.745708591698289,-1.0990862840661302,0,520,24,1,dws_1/sub_24.csv,4
521,-2.6178253,-1.0026052,-3.0163548,-0.26591718,0.84304327,0.46724004,-0.43845487,0.18591017,-0.6069121,-2.070572662919536,4.047095311593441,-1.2685525700674507,0,521,24,1,dws_1/sub_24.csv,4
522,-2.6077778,-1.018877,-3.030335,-0.27103728,0.851294,0.44954807,1.337853,0.31347108,0.5191754,-0.41160714009216515,-7.0921297086073825,-2.342478995822327,0,522,24,1,dws_1/sub_24.csv,4
523,-2.5846472,-1.1913915,-2.971204,-0.19172004,0.9290602,0.3158495,4.530646,-2.0219996,2.352996,1.1579238683301516,-5.647853442989377,0.3803466834325734,0,523,24,1,dws_1/sub_24.csv,4
524,-2.717079,-1.441235,-2.933447,-0.054581493,0.99179614,0.11871787,3.4084294,-3.0645216,1.3561653,0.8076174247350818,4.784237069025794,1.0041476627849273,0,524,24,1,dws_1/sub_24.csv,4
525,-2.4580913,-1.5024904,-2.5627165,-0.043745056,0.9973109,0.050366268,0.36676314,-3.0330045,-0.5416589,7.505553203168494,-2.3223977332196997,2.105869118022614,0,525,24,1,dws_1/sub_24.csv,4
526,-2.2394152,-1.5091314,-2.204644,-0.04701437,0.99841154,0.041654617,0.3630407,0.74720806,-0.054479532,1.2563498738602905,4.128976584051542,-0.5033620719353835,0,526,24,1,dws_1/sub_24.csv,4
527,-1.8373828,-1.4759651,-2.0346317,-0.09124277,0.9952064,0.019891098,0.06350601,2.512189,-1.1927187,-8.630076798890059,9.672052642593611,-5.323691234957983,0,527,24,1,dws_1/sub_24.csv,4
528,-1.7879769,-1.4502891,-1.8235409,-0.1167667,0.99292207,0.0281723,-0.15770482,-1.6244509,0.22601773,3.631497921925668,-3.6829785391307923,-2.616125637674471,0,528,24,1,dws_1/sub_24.csv,4
529,-1.821703,-1.464783,-2.0815828,-0.102715686,0.994384,0.024980247,0.23118317,1.541575,-0.039124697,4.089967188225638,1.5534353805366412,-0.9583846262711903,0,529,24,1,dws_1/sub_24.csv,4
530,-1.7148851,-1.4449065,-1.7194889,-0.124244444,0.99201727,0.019758224,-0.7504654,2.207002,-0.46653646,1.2561134971793977,0.37992546417994166,2.8075317876535535,0,530,24,1,dws_1/sub_24.csv,4
531,-2.2094214,-1.3989425,-2.9947712,-0.1384744,0.9854979,0.10036273,-2.8815382,2.0607507,0.07815988,3.059680310250806,-1.846008269509299,2.7009312188809833,0,531,24,1,dws_1/sub_24.csv,4
532,-2.6002,-1.2561971,-1.204423,-0.15731795,0.9506374,0.26653796,-4.0566835,1.9044225,-0.37311918,0.7651192906058457,-1.0870274455430653,-4.0556183944560935,0,532,24,1,dws_1/sub_24.csv,4
533,-2.6159625,-1.0762328,3.6164486,-0.24260284,0.8805645,0.40801352,-2.9842331,2.7293668,-1.2910346,-4.179028294289511,2.5203408505754603,-1.5010262816456348,0,533,24,1,dws_1/sub_24.csv,4
534,-2.5230954,-0.95099497,2.7456627,-0.3307911,0.81359386,0.47737098,-1.8687687,0.96561164,-0.5799528,-3.7706464382642064,1.2536302224027827,-0.3847023056761548,0,534,24,1,dws_1/sub_24.csv,4
535,-2.5972023,-0.9273746,3.2669706,-0.32177928,0.8007181,0.5071165,0.44655657,0.2568829,1.2310818,0.8438242500064908,-6.444815593391154,0.6368170862150526,0,535,24,1,dws_1/sub_24.csv,4
536,-2.5550146,-1.0790548,2.6523302,-0.248366,0.8809883,0.4004865,3.5055249,0.3905865,2.486858,2.620433441964342,-7.863857338571163,3.6340975438667105,0,536,24,1,dws_1/sub_24.csv,4
537,-2.6586397,-1.3004401,3.3637345,-0.13650174,0.9640944,0.23142949,3.174861,1.939162,2.5982242,-2.0528591398305625,1.4129112159519428,-1.1905189625855683,0,537,24,1,dws_1/sub_24.csv,4
538,-2.2899551,-1.4482949,1.1205144,-0.0840241,0.9923459,0.08429174,2.1709201,2.8385663,0.42910433,-2.4638943437773126,0.5278090132992073,0.05061845687114921,0,538,24,1,dws_1/sub_24.csv,4
539,-1.9119473,-1.4731406,-3.2907097,-0.09450658,0.9954062,0.028141618,0.38599586,-2.2757633,-0.043626696,4.001742669083493,-3.640118289495452,2.4468684482501426,0,539,24,1,dws_1/sub_24.csv,4
540,-1.85585,-1.502215,-2.4349911,-0.061752126,0.99756235,0.025266647,0.46870115,-2.7765508,0.75983727,6.53812037137119,0.39960652092547133,-3.5464931156905757,0,540,24,1,dws_1/sub_24.csv,4
541,-1.9425284,-1.5331883,-2.8589041,-0.03863217,0.9993513,0.008517876,0.051187757,3.525155,0.35148275,-6.9827259761912925,10.809923413632276,1.544069911684974,0,541,24,1,dws_1/sub_24.csv,4
542,-0.72751164,-1.544503,-1.6609671,-0.013397828,0.9997899,-0.012571275,0.8720267,0.84008104,0.67415214,-6.328241372933135,-2.292330300707334,-2.4813963090783546,0,542,24,1,dws_1/sub_24.csv,4
543,0.33267593,-1.4788954,-0.5476224,0.024405703,0.99530834,-0.09557529,1.9673619,-0.7469797,0.9053701,-3.941998997024539,2.4583134447299715,-1.2183810304626868,0,543,24,1,dws_1/sub_24.csv,4
544,0.34829378,-1.4092246,-0.75587064,0.055197656,0.9877015,-0.14582117,-0.270435,0.40897453,0.024027765,-1.0358097243807147,5.668648219390857,8.099285553598003,0,544,24,1,dws_1/sub_24.csv,4
545,0.40407467,-1.528115,0.27328286,0.017400384,0.99942786,-0.03832823,-3.4486902,-1.8867514,-0.96296835,3.135611939318235,-4.584301828829047,0.6256334421951066,0,545,24,1,dws_1/sub_24.csv,4
546,-2.9639847,-1.4346333,2.5679076,-0.016918734,0.9886512,0.14810868,-3.5701153,-1.4195316,-0.8787558,5.091389602894488,-12.684329101012054,-2.861598393917886,0,546,24,1,dws_1/sub_24.csv,4
547,-2.762548,-1.2249328,2.662085,-0.12250845,0.94305974,0.30878964,-3.337042,0.74263436,-3.486972,-6.088047842771751,15.058843616868938,5.065723371073214,0,547,24,1,dws_1/sub_24.csv,4
548,-2.537277,-0.993258,3.0409646,-0.31552434,0.8361138,0.45068568,-3.0801084,0.35975963,-3.6500244,-5.750625230649204,13.100390606893399,1.5846274275284202,0,548,24,1,dws_1/sub_24.csv,4
549,-2.5133793,-0.8508349,2.9470272,-0.38303673,0.7524225,0.53303415,-0.6433814,-1.2931337,-1.1469147,0.5827828270893383,-7.44177827451767,1.9792433393178808,0,549,24,1,dws_1/sub_24.csv,4
550,-2.5364041,-0.8685155,3.119422,-0.37455434,0.7643181,0.53060675,2.1805713,-0.86953473,-0.13025741,-0.4210864287081471,-11.179445221191912,3.43985101466851,0,550,24,1,dws_1/sub_24.csv,4
551,-2.3975613,-1.0664346,-2.2802846,-0.32102853,0.8736913,0.3567059,4.796915,1.4033456,2.6015184,-0.4776348828279471,-18.6111586507069,2.7799097982601895,0,551,24,1,dws_1/sub_24.csv,4
552,-2.286043,-1.2511196,-3.1664395,-0.24176145,0.9505904,0.20440102,1.3398032,-0.7284782,0.6379653,-5.546628363323922,8.002295513844293,-0.4109296871187741,0,552,24,1,dws_1/sub_24.csv,4
553,-2.2509773,-1.2318202,-2.770775,-0.25569543,0.9423958,0.20961685,-0.256488,-0.53516877,-0.74787784,4.798344874110039,17.043977876112287,-5.074411100056372,0,553,24,1,dws_1/sub_24.csv,4
554,-2.2683406,-1.2310334,-2.9623466,-0.25915447,0.94351906,0.21164031,0.20747158,0.7784545,0.64465034,10.692008084648682,-11.213751561259812,-2.8927248882785284,0,554,24,1,dws_1/sub_24.csv,4
555,-2.1702354,-1.3224839,-2.8638558,-0.19868487,0.9683459,0.14191893,1.6545498,2.6926734,2.2884593,1.41781881328675,3.327648461298564,-6.18992090889294,0,555,24,1,dws_1/sub_24.csv,4
556,-1.9455514,-1.4613268,-2.796587,-0.10580685,0.99502087,0.036369637,1.6625178,1.2269557,1.5997618,-5.558892824015409,2.47531775654409,-3.2308267012944882,0,556,24,1,dws_1/sub_24.csv,4
557,-0.73730457,-1.4984922,-1.6072879,-0.046917826,0.9967085,-0.048417553,1.7658381,0.799692,1.1362739,-0.01591662413523163,-5.564500747426451,-2.9251031696096734,0,557,24,1,dws_1/sub_24.csv,4
558,0.16095495,-1.4398926,-0.73722285,0.023967028,0.9918746,-0.13266487,1.4681578,1.3990467,1.3513207,5.343832757104336,-0.7070772259667918,0.6276908229845536,0,558,24,1,dws_1/sub_24.csv,4
559,0.5095923,-1.3550416,-0.52058774,0.09405218,0.9766493,-0.19083466,1.053335,0.90602154,1.132612,-1.7487701619037412,-3.107246406002273,3.5139552126564695,0,559,24,1,dws_1/sub_24.csv,4
560,0.5608275,-1.3190008,-0.40973026,0.15209423,0.96866775,-0.19938909,-0.18329471,2.8910599,0.5245527,-2.5258228417773942,0.45763832627636,1.4516477549430151,0,560,24,1,dws_1/sub_24.csv,4
561,1.0630476,-1.3238338,-0.2760433,0.19251768,0.96950364,-0.15123947,-0.72354597,1.2228191,0.23781879,-2.9714736811300835,2.052884752375355,0.30972108593947223,0,561,24,1,dws_1/sub_24.csv,4
562,0.8415296,-1.3751127,-0.06894314,0.17409481,0.9810509,-0.087041005,-2.141583,-0.640398,-0.9793814,-5.990075774222385,0.0652233914203122,3.3276562969933168,0,562,24,1,dws_1/sub_24.csv,4
563,2.5287614,-1.4723835,0.88677764,0.08866958,0.99523497,0.0406228,-2.4436426,-0.23716184,-2.2868807,6.867168398246861,9.656158816418339,-3.7197508996037265,0,563,24,1,dws_1/sub_24.csv,4
564,-0.8480525,-1.437298,2.531558,-0.054569572,0.9907961,0.123544924,-1.2616401,-2.541405,-3.570581,3.535599085826867,8.62513478153551,-3.033340824219725,0,564,24,1,dws_1/sub_24.csv,4
565,-2.8253002,-1.2736378,2.918514,-0.20652471,0.9566032,0.20613644,-1.5678651,-1.0745428,-2.9715607,-1.9609385677744986,2.5427063898228153,2.515241546183182,0,565,24,1,dws_1/sub_24.csv,4
566,-2.049148,-1.1483561,3.1036098,-0.3082474,0.91167676,0.27112722,-0.7105793,-1.194433,-2.1338542,1.889337768498196,-1.5277064190929677,-0.6295878876702334,0,566,24,1,dws_1/sub_24.csv,4
567,-2.4487345,-1.0640333,-2.294358,-0.36201617,0.8747903,0.32316783,-0.047286242,-2.8734632,-1.5912316,1.7756861638933963,-8.45876120542708,-1.8775912163102946,0,567,24,1,dws_1/sub_24.csv,4
568,-2.2852,-1.0463026,-3.2174315,-0.34555548,0.8651964,0.36234117,0.56992275,-2.6402588,-0.1278187,2.7862615787078937,-9.90174118824285,-1.0811979387773927,0,568,24,1,dws_1/sub_24.csv,4
569,-2.5035772,-1.1035296,-2.8697271,-0.29133803,0.8931856,0.34458345,1.7319169,-1.056814,0.93974125,5.43501386650917,-11.595885047747895,-0.9030576609096329,0,569,24,1,dws_1/sub_24.csv,4
570,-2.3067372,-1.2238259,-2.9272282,-0.24285273,0.9403761,0.23739357,2.2331436,0.39321518,0.61619574,-0.1165953623788088,7.900993416997278,7.178654733872324,0,570,24,1,dws_1/sub_24.csv,4
571,-2.2375689,-1.197015,-2.6871824,-0.2928378,0.9300384,0.21942867,-1.0709038,-0.0905059,-2.4253347,-11.562967253107377,10.469231353108551,12.328409470455448,0,571,24,1,dws_1/sub_24.csv,4
572,-2.06843,-1.1000482,-2.6839795,-0.39574423,0.8927838,0.22131333,0.69753516,2.8048282,-0.35693023,1.2280453351819016,-17.730157429461162,-7.7742707418234485,0,572,24,1,dws_1/sub_24.csv,4
573,-1.9493251,-1.2011681,-2.5677526,-0.3374873,0.9313711,0.12923712,0.8257796,-1.1197355,2.025479,-0.2538342769145686,20.100088864146638,-1.9474710569192974,0,573,24,1,dws_1/sub_24.csv,4
574,-2.0572507,-1.223912,-2.595148,-0.2997817,0.9408262,0.15962818,0.09241482,-1.4547434,-0.57504714,2.8033761046546943,3.9106277915659415,0.17320152676734868,0,574,24,1,dws_1/sub_24.csv,4
575,-1.8500628,-1.2602298,-2.4415805,-0.29365075,0.9515204,0.085309684,1.4855664,3.2442496,1.2049646,10.796951990203084,-10.129546819706304,-3.7983565538075075,0,575,24,1,dws_1/sub_24.csv,4
576,-1.5316036,-1.3314574,-2.3035307,-0.2366769,0.972083,-0.011307493,0.7936985,3.3664734,0.7170327,-6.367770625944444,6.668735744087224,-0.13503050731911834,0,576,24,1,dws_1/sub_24.csv,4
577,-1.1669183,-1.3435436,-2.067504,-0.20772707,0.97394097,-0.08651362,0.7287542,2.8127177,0.56619817,-2.4459944235607556,-5.436394742019259,-4.297359621065032,0,577,24,1,dws_1/sub_24.csv,4
578,-0.9150679,-1.3596613,-1.9733393,-0.165689,0.9780309,-0.12992431,0.36452892,2.2173293,0.426206,0.4106710150479603,-1.8240408887849011,-1.2015579759960486,0,578,24,1,dws_1/sub_24.csv,4
579,-0.6487999,-1.3460033,-1.7158871,-0.13547507,0.9748314,-0.17635398,0.8731444,1.1644309,0.46014643,-2.906595575943771,-0.22011757457678216,-0.0896824398619073,0,579,24,1,dws_1/sub_24.csv,4
580,-0.40678465,-1.3299133,-1.6583965,-0.09404595,0.97100854,-0.22079809,0.6224438,2.0208924,0.578957,-1.2481822743688384,-1.8791249446267786,0.5296173121117548,0,580,24,1,dws_1/sub_24.csv,4
581,-0.14782155,-1.3142214,-1.3075206,-0.03806378,0.9675775,-0.25004536,0.2456006,1.4450324,0.71152574,-1.5204973947527889,0.0839272636883375,-0.10070145058517135,0,581,24,1,dws_1/sub_24.csv,4
582,-0.0040062666,-1.321258,-1.5001645,-0.00049459934,0.9685114,-0.24874653,-0.16639185,0.91893464,0.35043162,-2.6832077323366166,1.377416578926176,-0.13952823734302214,0,582,24,1,dws_1/sub_24.csv,4
583,0.06943321,-1.3345711,-0.99017483,0.014335632,0.97310674,-0.23208179,-0.7462108,0.3997795,-0.20186049,-0.9194432555570162,4.547998904009231,3.1975274785333805,0,583,24,1,dws_1/sub_24.csv,4
584,-0.2238046,-1.4381838,-2.1874352,-0.02362676,0.9902345,-0.13323118,-3.0563524,0.60316056,-1.2612329,1.4160138876280763,3.4601012876776593,2.598999064046462,0,584,24,1,dws_1/sub_24.csv,4
585,-1.7380298,-1.4742817,-0.01717019,-0.09555608,0.9957069,0.027462587,-2.9800932,0.6027191,-1.6693135,7.231855069255246,4.25107352004975,-2.498700806883255,0,585,24,1,dws_1/sub_24.csv,4
586,-2.24062,-1.3144598,3.1863205,-0.20212154,0.9675912,0.14748698,-2.3416107,0.864363,-2.4775758,-1.926789359490435,2.3955420945949153,0.833079222690275,0,586,24,1,dws_1/sub_24.csv,4
587,-2.1880956,-1.1669952,2.293598,-0.317808,0.9191448,0.23498064,-1.8099809,0.5752739,-1.6989088,-0.3470238072694916,-1.0154771586376587,0.1108238281283884,0,587,24,1,dws_1/sub_24.csv,4
588,-2.2934992,-1.0840654,2.7058585,-0.3534033,0.8842656,0.3043051,-0.89300895,-1.3761528,-0.67581844,-0.16174606014388154,-3.246250904348312,-0.3303599273885405,0,588,24,1,dws_1/sub_24.csv,4
589,-2.330092,-1.0522828,2.4185128,-0.35814732,0.8682801,0.34417805,0.10360092,-1.1904954,-0.4741965,1.8205020467288922,-4.105697603349777,-0.5394538745187423,0,589,24,1,dws_1/sub_24.csv,4
590,-2.3410413,-1.0616703,2.686185,-0.35118937,0.8734312,0.33747584,0.7880322,-0.39567545,0.027520776,2.7932436827117644,-6.7301575233763815,0.39355334393931807,0,590,24,1,dws_1/sub_24.csv,4
591,-2.24004,-1.1229855,2.6067514,-0.3396271,0.90112394,0.26938543,2.0374026,0.43192863,0.6141485,2.5711047407537895,-5.6949292832087455,1.1536926904933524,0,591,24,1,dws_1/sub_24.csv,4
592,-2.093856,-1.1843592,2.8964524,-0.32690972,0.92656344,0.18779027,0.47760406,1.2374716,-0.14885043,-7.829502632245299,8.89358418480799,10.637745099728225,0,592,24,1,dws_1/sub_24.csv,4
593,-1.9759145,-1.1303878,2.710856,-0.39250523,0.90458643,0.16757876,-0.5029837,3.0430267,-1.0222378,-0.9443583066687709,-6.808274202955012,-0.38369456039706096,0,593,24,1,dws_1/sub_24.csv,4
594,-1.8159451,-1.1502091,3.0273478,-0.3957869,0.9126265,0.09937784,1.5278504,-0.075210005,0.9647387,0.8608006626426259,4.129032271454573,-3.6609904386729393,0,594,24,1,dws_1/sub_24.csv,4
595,-1.7467701,-1.1655166,2.7661974,-0.38841504,0.91888964,0.06846784,-0.1929641,1.2086542,-0.7835472,-2.7815974045291174,7.804909792113069,3.798741220514154,0,595,24,1,dws_1/sub_24.csv,4
596,-1.6246294,-1.1437843,3.449969,-0.413404,0.910312,0.022657946,1.0413438,1.2032366,0.5964434,14.393884425738785,-12.512892467301208,-1.146238669685097,0,596,24,1,dws_1/sub_24.csv,4
597,-1.4155567,-1.2135799,0.24596602,-0.3458709,0.9370017,-0.055022553,0.43342626,3.3617427,1.2543033,-4.151932166427338,7.938053609616422,-5.23209829992362,0,597,24,1,dws_1/sub_24.csv,4
598,-1.131476,-1.2269392,-4.161294,-0.30495974,0.94134146,-0.14233847,0.047576085,5.6412597,-0.11002107,-4.282418045115554,0.16358516925243566,-2.2554851376310396,0,598,24,1,dws_1/sub_24.csv,4
599,-0.93049335,-1.2372886,-1.5735989,-0.26275313,0.94496274,-0.19666152,-0.42863125,3.0183027,0.29027623,1.2017791126740214,-5.432854367405756,-4.510480797467945,0,599,24,1,dws_1/sub_24.csv,4
600,-0.8264499,-1.2600678,1.0723821,-0.22504017,0.95214194,-0.2065336,-0.10243642,2.3228083,0.28717512,-5.064865450820155,-0.17987545594506965,-3.6855220391709342,0,600,24,1,dws_1/sub_24.csv,4
601,-0.6268631,-1.2557384,-3.4685807,-0.18212362,0.9506782,-0.25195765,0.60648096,2.6675062,0.27946365,-2.375402009913351,-1.216029496952679,-0.6433662093006209,0,601,24,1,dws_1/sub_24.csv,4
602,-0.4231602,-1.249897,-2.7839577,-0.12943535,0.9491843,-0.2873268,0.23601906,1.1700542,0.92793727,0.7535330409230239,-1.6164799964447856,-0.2883751536972867,0,602,24,1,dws_1/sub_24.csv,4
603,-0.20148301,-1.2572141,-2.8709705,-0.06251123,0.95090526,-0.30344224,0.33495432,1.2246926,0.98411727,-0.6483829638229222,-0.20726044808380262,-1.0273855630726318,0,603,24,1,dws_1/sub_24.csv,4
604,-0.038882732,-1.2435318,-2.6628745,-0.011902839,0.9475177,-0.3206932,0.11012754,1.2691259,0.38250202,-0.6838999784939688,1.8792073613006508,1.1348419928426492,0,604,24,1,dws_1/sub_24.csv,4
605,0.07231879,-1.262073,-2.5903363,0.020951912,0.95186013,-0.3050506,-0.5655458,1.5455284,0.16314228,-0.9511735471662353,2.6469805449372346,1.7362366957100617,0,605,24,1,dws_1/sub_24.csv,4
606,0.15392113,-1.2962571,-2.785638,0.040901527,0.9638656,-0.26601875,-1.1892164,0.52694464,-0.13794875,-3.908641217369687,4.116887577850086,1.447472115122852,0,606,24,1,dws_1/sub_24.csv,4
607,-0.036482215,-1.4263566,-2.0450027,0.00078701973,0.9881237,-0.14870702,-3.3385863,0.045941144,-1.4873694,1.1916318361343883,1.6393582766974175,1.504326476464487,0,607,24,1,dws_1/sub_24.csv,4
608,-1.573262,-1.4737064,1.9888122,-0.099094935,0.9958832,0.015400186,-2.6635375,-1.4362221,-2.3709433,4.347169227607004,6.547960240662666,-3.5819686587979875,0,608,24,1,dws_1/sub_24.csv,4
609,-2.1211965,-1.2894071,1.425612,-0.24034876,0.9609303,0.13089444,-2.0854878,-0.87937117,-3.400756,-2.0111076818903872,4.5916666131918475,1.7761148995965925,0,609,24,1,dws_1/sub_24.csv,4
610,-2.1246722,-1.1100419,1.5407352,-0.3744314,0.89524835,0.24502267,-2.3080137,-0.60801077,-2.1901038,2.8899930919873773,0.7543396977326017,0.6749970722998018,0,610,24,1,dws_1/sub_24.csv,4
611,-2.3055005,-0.9884538,1.3367682,-0.41246086,0.83556074,0.3611204,-2.0558503,-1.3141966,-0.89027417,1.4381917108014968,-4.943555978806726,-0.23028999424672633,0,611,24,1,dws_1/sub_24.csv,4
612,-2.377614,-0.9104334,1.3641706,-0.42134744,0.7897098,0.44789764,-0.73941,-1.3860301,-0.64555526,2.8736647367167163,-7.315269924484111,-0.17075677087075103,0,612,24,1,dws_1/sub_24.csv,4
613,-2.472848,-0.90337664,1.3161708,-0.3864603,0.7853695,0.4823655,0.123675436,-1.4084611,0.3690818,2.2806787384119716,-7.121738827982185,-0.42772114446067167,0,613,24,1,dws_1/sub_24.csv,4
614,-2.512166,-0.9436914,1.3347532,-0.34514064,0.81010926,0.4758857,1.2867715,-0.35137665,0.74317944,6.086255462222895,-11.91617770794426,3.1313105558421706,0,614,24,1,dws_1/sub_24.csv,4
615,-2.4880154,-1.0467006,1.3497629,-0.30569205,0.86557364,0.39591202,1.5259967,0.45589125,0.9454669,-8.529790576710639,8.81300318107311,13.752792857390602,0,615,24,1,dws_1/sub_24.csv,4
616,-2.4463918,-1.0548806,1.385619,-0.31653798,0.8699561,0.3790163,0.0009838194,-0.5067458,-1.1713603,-7.742385779690475,5.35579391872784,5.8365252753331305,0,616,24,1,dws_1/sub_24.csv,4
617,-2.3592553,-1.0528897,1.5167577,-0.350111,0.8685597,0.3502828,1.0526223,0.5789292,-0.004939422,-0.5034987988041772,1.4662289681323826,-4.1169051870998885,0,617,24,1,dws_1/sub_24.csv,4
618,-2.3657825,-1.0854079,1.4867644,-0.32608062,0.88508075,0.3328422,0.28329057,-2.2719588,-0.07201423,1.6252851454447554,0.7865262266979963,-0.5434339484314571,0,618,24,1,dws_1/sub_24.csv,4
619,-2.4826427,-1.1780244,1.5989399,-0.23630999,0.9229455,0.30160406,2.0458887,-1.2966874,1.2679771,9.137024504267627,-6.639581400610043,-6.367857937478144,0,619,24,1,dws_1/sub_24.csv,4
620,-2.3973334,-1.2937455,1.4795918,-0.1828801,0.96278834,0.20298186,1.319149,1.9138474,0.90654767,-3.762179123544652,4.930557092143204,0.2151799228733062,0,620,24,1,dws_1/sub_24.csv,4
621,-2.266223,-1.347878,1.7949235,-0.17303544,0.9745158,0.13837513,1.1927717,1.0583248,0.6134498,2.2041658807921727,-2.2471616678181685,1.3042279044995078,0,621,24,1,dws_1/sub_24.csv,4
622,-2.1127374,-1.4406147,1.5013075,-0.10810529,0.9922769,0.06972374,1.1746347,0.12675107,1.7872872,2.7383458466212334,-3.284306021650425,-1.5064137114637488,0,622,24,1,dws_1/sub_24.csv,4
623,-2.133181,-1.5302193,2.2242749,-0.03684312,0.9988123,0.023214087,0.80965674,1.339303,1.0345998,-0.5173903929259875,-1.2737459244928206,-1.949436778761767,0,623,24,1,dws_1/sub_24.csv,4
624,-0.22677124,-1.5446825,-0.9142464,-0.0010398775,0.99993396,-0.027329862,1.1933062,0.56100553,0.58026844,0.6296671593756475,0.008198547996266342,-1.3131877036574808,0,624,24,1,dws_1/sub_24.csv,4
625,0.2432344,-1.4776528,-2.6266983,0.027642429,0.9957004,-0.09004669,1.060251,0.8284324,0.58037066,0.6997130591627005,0.010110966503656563,2.516622054428781,0,625,24,1,dws_1/sub_24.csv,4
626,0.78201914,-1.4449872,-1.7348838,0.07139273,0.99213886,-0.10066821,-0.34486207,0.86455375,0.8576811,2.054295499343836,3.403400000847753,2.625244932763633,0,626,24,1,dws_1/sub_24.csv,4
627,0.7075577,-1.4627086,-1.718051,0.095669016,0.9941695,-0.061649635,-1.23072,-0.1846871,-0.01806926,-6.324311614561391,2.5671157160496287,2.3944675961086497,0,627,24,1,dws_1/sub_24.csv,4
628,2.7430372,-1.4773574,-0.31044012,0.06827773,0.9955342,0.052369654,-3.1148105,-0.8216451,-0.8716757,-3.176013928947403,4.95494134600005,-0.8805618739947486,0,628,24,1,dws_1/sub_24.csv,4
629,0.013052702,-1.3835685,0.6543895,0.009843916,0.98275197,0.189532,-2.1442814,-3.0445738,-2.2567737,-0.3701503530501522,4.541481174484352,-10.765054687109835,0,629,24,1,dws_1/sub_24.csv,4
630,-3.3534088,-1.2702923,1.2921517,-0.119209275,0.9548966,0.26875174,-1.2717516,-2.886446,-4.018501,-7.336491415982595,4.681975416836449,-2.872091328638765,0,630,24,1,dws_1/sub_24.csv,4
631,-2.232532,-1.1321375,1.6551607,-0.23850673,0.9056828,0.3529917,-0.8904786,-3.7663834,-3.0157077,2.998281769277911,4.396245098951088,-4.2171707473344,0,631,24,1,dws_1/sub_24.csv,4
632,-2.7760248,-1.0381366,1.846633,-0.2656969,0.86102915,0.43195283,-0.38476953,-4.302145,-2.3839865,4.216618811921865,-1.8260637979756917,-2.092488769448598,0,632,24,1,dws_1/sub_24.csv,4
633,-2.5198307,-0.98717856,2.0177693,-0.27407327,0.83517087,0.4789924,0.539988,-2.7483468,-1.5161457,4.489560974923189,-5.928836235187415,-2.04850975811057,0,633,24,1,dws_1/sub_24.csv,4
634,-2.7004154,-1.0146468,2.128549,-0.24722144,0.8485015,0.46587247,1.3560956,-2.612691,-0.5692193,4.012751769054418,-5.572690938970176,-1.2105557437959469,0,634,24,1,dws_1/sub_24.csv,4
