level_0,attitude.roll,attitude.pitch,attitude.yaw,gravity.x,gravity.y,gravity.z,gyro-x,gyro-y,gyro-z,accel-x,accel-y,accel-z,activity code,index,user,serial,csv,standard activity code
0,-1.2438476,-0.7341765,0.80678004,-0.4911024,0.62870014,-0.34237474,0.25912505,-0.86965257,1.1419734,-3.3115494642945693,-2.458404653417976,-2.5070603645332312,0,0,5,1,dws_1/sub_5.csv,4
1,-0.6975218,-0.5219292,1.6119993,-0.63916755,0.5111732,-0.6447925,-0.10474018,-0.00765419,1.8317084,-5.417055963220497,-4.044710382783817,-4.550077054369122,0,1,5,1,dws_1/sub_5.csv,4
2,-0.8421563,-0.6476311,1.4184248,-0.5591681,0.59817064,-0.5419012,-0.33568648,-0.32790086,0.17261383,-4.47484064345645,-3.3268231008526663,-2.145954524148797,0,2,5,1,dws_1/sub_5.csv,4
3,-0.80457425,-0.6167995,1.5412128,-0.6103471,0.581791,-0.55882186,0.13528137,-1.3082081,0.5316427,-2.027860419895066,-1.5623300445605903,-3.257856747275916,0,3,5,1,dws_1/sub_5.csv,4
4,-0.89096963,-0.65253806,1.5257788,-0.60495555,0.6051501,-0.5039458,0.9256387,-1.4749789,0.7368397,-3.153742929517369,-1.38571519180773,-1.361510898833629,0,4,5,1,dws_1/sub_5.csv,4
5,-0.8912356,-0.6246883,1.6561341,-0.64033675,0.5865544,-0.50666434,1.4419861,-1.6125185,0.54166967,-4.72007298243879,-0.7303769859854117,-3.2826137556502624,0,5,5,1,dws_1/sub_5.csv,4
6,-0.8937273,-0.5590494,1.7325766,-0.6538921,0.5288724,-0.5328784,2.93915,-0.29885083,-0.68960077,-2.777052998608782,-4.414250516730899,-3.7312148043768176,0,6,5,1,dws_1/sub_5.csv,4
7,-0.8909247,-0.48070216,1.8181739,-0.6951024,0.46383086,-0.55617386,0.06468873,-1.7309489,0.5188907,1.5231271255714458,-6.469585667115596,0.3598676124536563,0,7,5,1,dws_1/sub_5.csv,4
8,-1.0051277,-0.6035762,1.792625,-0.6929675,0.56688344,-0.44205076,-1.8536775,-1.3214084,2.2973464,-4.68473915915327,-4.184667135327151,-4.39795031044878,0,8,5,1,dws_1/sub_5.csv,4
9,-1.0006181,-0.6899437,1.8042073,-0.65061355,0.6369418,-0.41578853,-0.46824118,0.32519466,0.94466794,-1.9639746062087027,0.5798956846797984,-1.649850371438984,0,9,5,1,dws_1/sub_5.csv,4
10,-1.0561564,-0.7683661,1.7664008,-0.6249772,0.6946521,-0.35416937,-1.8080368,-1.1387367,1.2938279,-0.8346872512794117,3.882763658074756,0.5756236886260507,0,10,5,1,dws_1/sub_5.csv,4
11,-1.1164873,-0.85283077,1.7243309,-0.5919273,0.75347626,-0.28844863,-0.55256057,-0.07153082,0.9297997,-1.579253338772644,-0.6825849173163732,2.5007326603097932,0,11,5,1,dws_1/sub_5.csv,4
12,-1.1246654,-0.8843787,1.7386189,-0.57121664,0.77328974,-0.27356958,0.06320634,-0.87240005,0.5522116,-1.0843094546959793,0.6351040454737225,-0.3073404885300589,0,12,5,1,dws_1/sub_5.csv,4
13,-1.1345007,-0.9054518,1.7750177,-0.5599175,0.7869206,-0.2608778,0.40773284,-0.29969248,0.5768034,-1.6611378915847002,-0.8298998372996678,0.3012396922587704,0,13,5,1,dws_1/sub_5.csv,4
14,-1.0920191,-0.92577446,1.8181484,-0.53337014,0.79891986,-0.27689087,0.1083596,0.3256721,0.628043,-0.508358091023924,-0.518520399594958,0.2615520136767613,0,14,5,1,dws_1/sub_5.csv,4
15,-1.0413141,-0.95130396,1.8530087,-0.5012892,0.81434745,-0.29342222,0.29489374,0.62877417,0.73340964,0.1919788992556506,0.43003907127222857,-0.13141264581369932,0,15,5,1,dws_1/sub_5.csv,4
16,-0.9428233,-0.9713379,1.9281759,-0.45648187,0.825511,-0.3313135,0.43125293,0.6505213,0.6726092,0.8642959151430641,-0.9634421366751301,-0.47670254328991724,0,16,5,1,dws_1/sub_5.csv,4
17,-0.8790915,-0.98150104,1.9854391,-0.42813414,0.83151394,-0.35462248,0.2257882,0.12185988,0.4828297,-2.915445465443796,-1.4987125428142443,-0.3769749790456896,0,17,5,1,dws_1/sub_5.csv,4
18,-0.8326651,-1.0088068,2.038311,-0.39408985,0.84605086,-0.35854262,-0.14297645,-0.008873403,0.88479894,-0.5623684236213876,-2.13488922939469,-1.501750043224884,0,18,5,1,dws_1/sub_5.csv,4
19,-0.8726692,-1.0521364,2.0007265,-0.37981328,0.86867476,-0.3185284,-1.5593104,-0.24571446,0.008158386,0.44628529082196117,-0.7423637548694723,-1.3125451855000032,0,19,5,1,dws_1/sub_5.csv,4
20,-1.0059204,-1.1077372,1.8556347,-0.3773967,0.8946038,-0.2392173,-1.4712138,0.17275548,0.14400798,1.0961857644793802,6.422467203524757,3.904813286521035,0,20,5,1,dws_1/sub_5.csv,4
21,-1.0332506,-1.1139569,1.8055794,-0.3786363,0.8974649,-0.22601749,0.30903998,0.25092345,-0.24475056,0.038750881346063124,0.3084634700407117,0.8778194056446642,0,21,5,1,dws_1/sub_5.csv,4
22,-0.9849187,-1.1025387,1.8688827,-0.37629664,0.8923626,-0.24936683,0.49309605,-0.52422047,0.56298345,0.3109137580086549,-1.7261352369340752,-1.0615007451919105,0,22,5,1,dws_1/sub_5.csv,4
23,-0.95481324,-1.1062587,1.9224136,-0.36547202,0.8940361,-0.259068,0.30496755,-0.19586495,0.12332555,-0.5067100353674572,1.5550338929800753,0.6260966175505797,0,23,5,1,dws_1/sub_5.csv,4
24,-0.93857944,-1.1099457,1.952476,-0.35885638,0.8956878,-0.262623,-0.0057153804,-0.2160039,0.32496682,0.8337419826304748,0.3551824394471556,-0.10745325361453323,0,24,5,1,dws_1/sub_5.csv,4
25,-0.9462062,-1.1166742,1.9478145,-0.35580707,0.8986263,-0.25675815,-0.07154743,0.07013148,-0.08846398,0.02742709346486229,-0.3818673601281697,0.397847690395737,0,25,5,1,dws_1/sub_5.csv,4
26,-0.94763255,-1.1163319,1.9436917,-0.3563926,0.89856654,-0.2559802,-0.0874942,0.039907336,-0.014874607,0.39324068591819794,0.4547284637474045,0.5082502649581,0,26,5,1,dws_1/sub_5.csv,4
27,-0.96126485,-1.1112554,1.929652,-0.36379007,0.89615655,-0.25439525,0.19096099,-0.24002832,-0.15503779,-0.7178007212601392,-2.079023620178231,0.3987585008287862,0,27,5,1,dws_1/sub_5.csv,4
28,-0.9194311,-1.1146052,2.012918,-0.3501384,0.8978934,-0.266356,0.49794826,-0.7424502,1.0611583,-1.1743547912937213,-1.876795346502877,-0.7560839416931363,0,28,5,1,dws_1/sub_5.csv,4
29,-0.8454944,-1.1710516,2.1115458,-0.29150862,0.9210555,-0.25912327,-0.20318145,0.027325392,1.5114751,0.3960709056603682,1.8788949434082276,0.89289545215719,0,29,5,1,dws_1/sub_5.csv,4
30,-0.6684308,-1.2143376,2.3124566,-0.21590468,0.9372238,-0.27297348,0.6434968,-0.47242802,1.6332214,2.2217690026016426,-2.8522384527972786,-0.8093365273972432,0,30,5,1,dws_1/sub_5.csv,4
31,-0.58528256,-1.2442338,2.4178941,-0.17683457,0.947057,-0.26797467,-0.6843051,0.049970806,0.24355385,0.7038831257495677,4.679649672965053,-0.2312285692306574,0,31,5,1,dws_1/sub_5.csv,4
32,-0.6022208,-1.2661815,2.391413,-0.17013396,0.95404214,-0.24679928,-0.014188566,-0.0037659407,0.29035732,0.27435949525094266,2.626240432349121,0.14777401999556192,0,32,5,1,dws_1/sub_5.csv,4
33,-0.5313529,-1.2735445,2.4713714,-0.14827932,0.9560812,-0.25284648,-0.007609806,-0.0031288862,0.47830546,2.0455442417161205,-3.009658437430307,-0.308141933875649,0,33,5,1,dws_1/sub_5.csv,4
34,-0.49238396,-1.2847643,2.5079043,-0.13348174,0.9594605,-0.24834476,-0.112226486,0.042322695,0.25027284,1.7482630536203205,-1.7325197855415095,-0.5799174343329341,0,34,5,1,dws_1/sub_5.csv,4
35,-0.41664362,-1.3102751,2.5857615,-0.10411316,0.96616197,-0.2357843,-0.4590452,0.107296705,0.95033014,0.7257325174080822,2.0888769007312527,-0.37679702052030134,0,35,5,1,dws_1/sub_5.csv,4
36,-0.25470984,-1.3459387,2.742331,-0.05630862,0.97492576,-0.21572317,-0.29082912,0.19119328,0.6752795,1.2727559764506995,4.7297780888661105,-0.038151701972858595,0,36,5,1,dws_1/sub_5.csv,4
37,-0.2405361,-1.3549632,2.766314,-0.050681435,0.97673184,-0.20792054,-0.07521575,-0.44279358,-0.06686024,1.9182008724142237,-0.6539023356088631,-0.33654431508185645,0,37,5,1,dws_1/sub_5.csv,4
38,-0.2681297,-1.3607123,2.7594516,-0.055775054,0.97809607,-0.20128323,-0.26783842,-0.3852476,-0.056009583,2.5472536879558887,1.5664212214168853,-0.5756851421158494,0,38,5,1,dws_1/sub_5.csv,4
39,-0.40127766,-1.380986,2.6526656,-0.07280676,0.98196244,-0.17353897,-0.63210744,-0.6103493,-0.3066573,1.7584012690472786,-1.3243699989793873,1.17284648866538,0,39,5,1,dws_1/sub_5.csv,4
40,-0.47716677,-1.3967621,2.5919206,-0.079914816,0.98494506,-0.15387394,-0.04258999,0.02670002,0.059703834,0.5544924680571303,0.17857596751292346,0.2061023276117008,0,40,5,1,dws_1/sub_5.csv,4
41,-0.50187004,-1.3993465,2.5580506,-0.08173131,0.9853128,-0.14948018,-0.2849002,0.11528283,-0.19460475,1.673594038821005,0.32346221117085233,-0.9621093617615579,0,41,5,1,dws_1/sub_5.csv,4
42,-0.58722377,-1.4068439,2.4673746,-0.09071262,0.9866149,-0.13591106,-0.17453542,0.16955584,-0.15102996,1.1002964802752884,0.49750242194363703,0.39702362719010675,0,42,5,1,dws_1/sub_5.csv,4
43,-0.6186178,-1.4048458,2.4177911,-0.09557751,0.9862525,-0.13449697,-0.061147295,0.3335666,-0.19296968,1.578074460706872,0.36633038900745246,0.303678310027255,0,43,5,1,dws_1/sub_5.csv,4
44,-0.67616963,-1.4094148,2.3327703,-0.10070267,0.9870174,-0.12535225,-0.2618505,0.6215618,-0.1841116,-0.28073346473311683,-0.48127979653166036,0.16058284749760138,0,44,5,1,dws_1/sub_5.csv,4
45,-0.6932652,-1.4129119,2.2863762,-0.100351885,0.9875581,-0.12087436,-0.005854723,0.46895242,-0.038598713,-0.7700463269502255,0.00737757236627613,0.09096204323437168,0,45,5,1,dws_1/sub_5.csv,4
46,-0.6775876,-1.4104742,2.2747386,-0.100143686,0.9871806,-0.12437256,0.037981372,0.6947432,-0.038523816,-0.007469889568064211,0.07369198488925026,0.40582892593580017,0,46,5,1,dws_1/sub_5.csv,4
47,-0.67948747,-1.4078165,2.2239883,-0.10188845,0.98674643,-0.12617747,-0.06695285,1.1327364,-0.1037311,-0.21362744274386009,-0.22600611246114588,0.08650512899050984,0,47,5,1,dws_1/sub_5.csv,4
48,-0.6523323,-1.4083216,2.1950617,-0.09826032,0.9868356,-0.1285062,0.029473424,1.0958357,-0.00704965,-0.3998694754293159,-0.49099848197505896,0.02628241492380288,0,48,5,1,dws_1/sub_5.csv,4
49,-0.58716273,-1.4060469,2.208363,-0.09091707,0.98645294,-0.1365432,0.11698925,0.9983533,0.051138498,-0.2685597789507906,-0.31647283702939855,0.2993184464819657,0,49,5,1,dws_1/sub_5.csv,4
50,-0.5015278,-1.4047183,2.2446008,-0.079526454,0.9862516,-0.14498465,0.06134936,1.0092895,0.14526168,-0.3268550727292733,-0.16316622946548032,0.4389810758891708,0,50,5,1,dws_1/sub_5.csv,4
51,-0.39235294,-1.408101,2.3065515,-0.062119864,0.9867822,-0.14979829,0.04459446,0.8764047,0.2689033,-0.5846463063897527,-0.33551869118969646,0.2156055505626769,0,51,5,1,dws_1/sub_5.csv,4
52,-0.26239502,-1.411172,2.3993068,-0.0411778,0.9873151,-0.15359457,0.12394468,0.7372319,0.36048654,-0.6128125011221612,0.09303105870975875,-0.058411373981178315,0,52,5,1,dws_1/sub_5.csv,4
53,-0.13702202,-1.4082526,2.4891922,-0.022493511,0.9867913,-0.16058303,0.19952321,0.702943,0.22997981,-0.9623543601762995,1.0748362528530533,0.15282677545769263,0,53,5,1,dws_1/sub_5.csv,4
54,-0.04632044,-1.4017762,2.5481207,-0.007472694,0.9858096,-0.16805054,0.14486563,0.60533786,0.24362198,-1.4530799653286102,1.6442717123051078,0.9750040618530272,0,54,5,1,dws_1/sub_5.csv,4
55,0.024569988,-1.3998989,2.5957272,0.0034179688,0.98536104,-0.17055373,-0.06970596,0.24107033,-0.072626896,-2.3161343489695176,2.6555323328826326,-1.5283413734427684,0,55,5,1,dws_1/sub_5.csv,4
56,-0.13364315,-1.4190968,2.4472485,-0.019473732,0.98864055,-0.14956929,-0.7943736,-0.5919,-0.6280132,-0.7282196419880225,2.5263392073805533,-2.7786156439942657,0,56,5,1,dws_1/sub_5.csv,4
57,-0.5509715,-1.4724932,2.0713158,-0.05191035,0.99504966,-0.0844502,-1.5966879,-1.0759311,-0.41947937,0.10950015615843428,1.2794874831578,-2.134413202983463,0,57,5,1,dws_1/sub_5.csv,4
58,-1.6342175,-1.4965725,1.0412846,-0.073114805,0.9973866,0.0063631386,-1.8038177,-1.0699005,-0.44079503,1.1181858487852934,1.7450312712387113,-1.3614388056817412,0,58,5,1,dws_1/sub_5.csv,4
59,-2.3815646,-1.4313704,0.3390953,-0.097860076,0.9902272,0.09883681,-1.7057563,-0.9677073,-0.57324225,-0.2404157097152714,1.0185651366188333,-0.49093752535658286,0,59,5,1,dws_1/sub_5.csv,4
60,-2.5734072,-1.3558775,0.2067607,-0.1127283,0.9770569,0.18111753,-1.4105953,-1.5067477,-0.42472416,-0.7545507263235853,-1.6959288753954094,-0.4315308831262265,0,60,5,1,dws_1/sub_5.csv,4
61,-2.7234676,-1.2874328,0.14530528,-0.11562639,0.9600778,0.25457042,-1.1947038,-1.9459677,-0.5099503,0.644619225675943,-3.0406164322743465,-0.31978083899753285,0,61,5,1,dws_1/sub_5.csv,4
62,-2.786818,-1.2359284,0.17141688,-0.11286275,0.94449526,0.30874288,-0.68224883,-1.486438,-0.40494215,1.327059966583198,-3.612239950932743,0.37677389222595176,0,62,5,1,dws_1/sub_5.csv,4
63,-2.823536,-1.2074072,0.18646938,-0.11257157,0.9346742,0.33722177,-0.3725446,-0.65727925,-0.2877104,1.259190703436372,-3.2147635609220835,1.4295036372652894,0,63,5,1,dws_1/sub_5.csv,4
64,-2.8230147,-1.1917067,0.21027279,-0.11547882,0.92903537,0.35165548,-0.16130733,-0.39676732,-0.21332929,-0.7746254616791158,-4.262861694852409,2.9689732001088722,0,64,5,1,dws_1/sub_5.csv,4
65,-2.8309228,-1.1797643,0.24259508,-0.11736134,0.9245013,0.36275983,-0.16598056,-1.1426458,-0.43043625,-2.4521210480297584,1.235121909152824,3.3400145295111794,0,65,5,1,dws_1/sub_5.csv,4
66,-2.8531592,-1.1661644,0.29195493,-0.11205539,0.9192796,0.37742078,-0.08224583,-1.29691,-0.40430033,-0.6519885850634429,2.012207716905236,6.205614896027612,0,66,5,1,dws_1/sub_5.csv,4
67,-2.865879,-1.1625004,0.33948177,-0.108542815,0.9177875,0.38204125,0.10214704,-1.1273057,-0.34792292,-0.09831565942128133,-1.4592206012834963,2.536333668126197,0,67,5,1,dws_1/sub_5.csv,4
68,-2.9068704,-1.1624563,0.35888332,-0.09246736,0.91782784,0.38612497,-0.08613523,-0.9564748,0.008312613,2.848260640548817,6.439081029058608,-2.0776641525324426,0,68,5,1,dws_1/sub_5.csv,4
69,-2.8974109,-1.1493871,0.37209636,-0.09907189,0.9124971,0.3967994,-0.2400495,0.60417444,-0.41822478,-0.853412955056309,-0.5790805027806958,-0.4663965206771399,0,69,5,1,dws_1/sub_5.csv,4
70,-2.8043327,-1.1483482,0.44658023,-0.1355976,0.91211385,0.38700086,0.59828347,0.08248258,-0.56867355,-2.6743547000622208,0.28024931372071754,-2.563634877413502,0,70,5,1,dws_1/sub_5.csv,4
71,-2.7361486,-1.1872176,0.5399988,-0.14761142,0.9273347,0.3437719,1.1483601,-0.40810415,-0.2813607,0.9230178033035016,0.4389554215309501,-1.5652673337618923,0,71,5,1,dws_1/sub_5.csv,4
72,-2.6520302,-1.2300375,0.625315,-0.15715647,0.94249856,0.29499307,0.89751273,0.5173579,-0.08538932,2.093225981517961,-0.9936538435813635,-1.4859505819015026,0,72,5,1,dws_1/sub_5.csv,4
73,-2.5642319,-1.2600758,0.68024844,-0.16688848,0.95213306,0.25609297,0.498947,0.7325229,0.040900163,0.5333474781842351,-1.2481525071582444,-1.0207077356052605,0,73,5,1,dws_1/sub_5.csv,4
74,-2.5225322,-1.2701122,0.6934536,-0.17181706,0.95513546,0.24122772,0.005265006,0.4244604,0.04739306,-1.4752461488771618,-1.263639299758218,0.2108678976771844,0,74,5,1,dws_1/sub_5.csv,4
75,-2.5234256,-1.2673075,0.68413335,-0.17326865,0.9543,0.24347621,-0.096793,-0.04333347,-0.03385782,-1.2859639241281027,-3.0553315483685917,0.553566134759254,0,75,5,1,dws_1/sub_5.csv,4
76,-2.5292375,-1.2626733,0.6837513,-0.17419817,0.952921,0.24816936,-0.044847537,-0.08025524,-0.020309828,-0.12368643426376782,-2.4563655235653012,0.9261968560401547,0,76,5,1,dws_1/sub_5.csv,4
77,-2.5387392,-1.2654146,0.67568284,-0.17062396,0.9537083,0.24758342,0.04263216,-0.054067522,0.120069094,-0.23841494425747076,-1.7305132209724863,-0.8137490789544095,0,77,5,1,dws_1/sub_5.csv,4
78,-2.5500436,-1.2694532,0.6619176,-0.165235,0.95496863,0.24639699,0.03607217,0.1946289,0.13036028,0.23451940452105627,-0.8800762049993326,-0.6015835291139575,0,78,5,1,dws_1/sub_5.csv,4
79,-2.5619228,-1.2767596,0.6330499,-0.15925567,0.95708925,0.24231735,-0.1780221,0.21506399,0.25786763,-1.2072353503842443,1.6925421487597903,-2.43516368347952,0,79,5,1,dws_1/sub_5.csv,4
80,-2.6666753,-1.2276732,0.53740066,-0.15301323,0.941615,0.29933804,-2.0482051,-0.59372115,-0.2562546,1.613901091195336,4.606771061183574,-1.7782538561112067,0,80,5,1,dws_1/sub_5.csv,4
81,-2.7408152,-1.1103741,0.47248882,-0.17412949,0.89599764,0.4089052,-2.0950637,0.18874454,-0.6178582,1.0329707642470425,4.721141950711253,2.330338735474934,0,81,5,1,dws_1/sub_5.csv,4
82,-2.7404902,-1.0418147,0.44736677,-0.19642945,0.863245,0.46472454,-0.8681662,0.32690513,0.00016155094,-2.779256167055161,0.8230321721063263,2.667229676525438,0,82,5,1,dws_1/sub_5.csv,4
83,-2.7651854,-1.0219679,0.42522675,-0.19229084,0.8531797,0.48504657,-0.063090496,-0.3135666,-0.044655558,0.46948267750943734,-0.9102659168757891,1.3582327214834835,0,83,5,1,dws_1/sub_5.csv,4
84,-2.7482708,-1.045001,0.44507045,-0.19196233,0.86497766,0.46361816,0.9435143,0.32400924,0.1968523,2.094580036293213,-4.127370875685766,0.3741419709091945,0,84,5,1,dws_1/sub_5.csv,4
85,-2.7188332,-1.1159229,0.4475327,-0.18058158,0.8982551,0.4005977,1.4897404,0.6515122,0.65118295,0.03015997871977447,-5.890713400644532,0.5738398430359166,0,85,5,1,dws_1/sub_5.csv,4
86,-2.661726,-1.1843759,0.474621,-0.1737481,0.9263333,0.3342483,1.1318558,0.50520706,0.17580345,-1.046718776631705,-4.066423030396872,1.4212864230306557,0,86,5,1,dws_1/sub_5.csv,4
87,-2.5988173,-1.2322917,0.5462615,-0.17168173,0.94319564,0.28437227,1.1020803,-0.5721767,-0.082279496,-1.2621898481201246,0.7100870395628474,-0.028012892404366902,0,87,5,1,dws_1/sub_5.csv,4
88,-2.530324,-1.2581655,0.6436737,-0.17634964,0.9515718,0.25172564,0.3283487,-0.119700536,-0.2812527,2.4315153668746556,4.651845584778032,0.33066411900715537,0,88,5,1,dws_1/sub_5.csv,4
89,-2.5359416,-1.2606251,0.6367212,-0.17387208,0.95225376,0.25091726,-0.0522981,-0.17709972,0.39916974,1.495380426924823,0.6370229427153884,-5.842635136198435,0,89,5,1,dws_1/sub_5.csv,4
90,-2.6238756,-1.2714131,0.566477,-0.14578107,0.9555457,0.25640303,-0.18281987,-0.13989483,0.31509015,-0.6807889389244494,5.693983443423033,1.250269137902481,0,90,5,1,dws_1/sub_5.csv,4
91,-2.603246,-1.2623789,0.54884833,-0.15564053,0.95281035,0.26037365,0.008354408,1.1882632,-0.14690758,-2.689279632506283,2.57869947794301,0.6103044261678495,0,91,5,1,dws_1/sub_5.csv,4
92,-2.5326054,-1.2764764,0.59279066,-0.16598561,0.9570086,0.23798871,0.529049,-0.07668269,0.005363308,-1.0285372418220087,-4.120051051138022,-1.1825526365967778,0,92,5,1,dws_1/sub_5.csv,4
93,-2.4941387,-1.2906227,0.64498705,-0.16675726,0.9610144,0.22048984,0.30129093,-0.08584401,-0.13945492,0.7641251738567967,1.353581865973699,0.7151280137446296,0,93,5,1,dws_1/sub_5.csv,4
94,-2.4821036,-1.2922899,0.65629405,-0.16837929,0.9614842,0.21720341,-0.21166417,-0.05971712,0.113652654,-0.9292652203137658,-2.431309897655223,-0.6780777789034532,0,94,5,1,dws_1/sub_5.csv,4
95,-2.5674403,-1.2783818,0.58696,-0.15670216,0.95754313,0.24208498,-0.580455,-0.64602065,0.13439125,-0.617291623231649,-2.4426660049330073,-1.3903899510700677,0,95,5,1,dws_1/sub_5.csv,4
96,-2.7139757,-1.2385463,0.48480958,-0.13497555,0.9453356,0.29665366,-1.520853,-1.1807637,0.19973934,1.9992584003594258,0.35585868172868296,-3.659725810634336,0,96,5,1,dws_1/sub_5.csv,4
97,-2.8228474,-1.1443741,0.40429825,-0.12990087,0.9103951,0.39278027,-2.0367684,0.07925707,-0.50119746,2.394138559935457,5.076586952857587,2.0305009514990946,0,97,5,1,dws_1/sub_5.csv,4
98,-2.7724502,-1.0620427,0.40857548,-0.1755298,0.87344366,0.45430687,-1.0503197,1.2108424,-0.379818,-0.048187442608829706,3.0125665004918636,3.6611279664078435,0,98,5,1,dws_1/sub_5.csv,4
99,-2.7397652,-1.0462164,0.40461785,-0.19592889,0.8654362,0.4608423,0.34153286,0.30253667,0.017066367,-1.2477959904598284,-0.6344829927694307,1.5590545624648242,0,99,5,1,dws_1/sub_5.csv,4
100,-2.706657,-1.0880325,0.43641537,-0.1957435,0.88584304,0.4210285,1.1677366,0.016854525,0.17202055,0.9830601476329176,-0.8571174269963777,2.140577330282695,0,100,5,1,dws_1/sub_5.csv,4
101,-2.6757865,-1.1565561,0.4745962,-0.18048388,0.91530156,0.35955212,1.5493124,-0.029503882,0.324662,-1.0492694293199973,-1.7849979746897342,1.7814837352393544,0,101,5,1,dws_1/sub_5.csv,4
102,-2.5916357,-1.2303902,0.5489529,-0.17482224,0.94272566,0.28460103,1.4680054,0.4894992,0.13430312,0.977681092354549,-2.1183063176348904,-2.018268085270899,0,102,5,1,dws_1/sub_5.csv,4
103,-2.4522858,-1.2825828,0.6801445,-0.18047278,0.95870477,0.21929808,1.1627303,0.0982998,-0.22420591,0.003460396336001332,-4.181367246345742,-2.596244105143933,0,103,5,1,dws_1/sub_5.csv,4
104,-2.3423064,-1.2953756,0.7925661,-0.19501798,0.9623229,0.18960765,0.042543363,-0.14345165,-0.21996477,1.8958042686826628,-6.851061619273811,-2.672169983907625,0,104,5,1,dws_1/sub_5.csv,4
105,-2.4239004,-1.2751703,0.7507985,-0.19161156,0.9566512,0.21937054,-0.68896127,-1.336361,-0.09518794,0.1353537390981727,8.041387987408214,-2.967057058190449,0,105,5,1,dws_1/sub_5.csv,4
106,-2.5298858,-1.2341268,0.67998487,-0.18963611,0.94381964,0.27043334,-1.0703162,0.031307697,-0.09292676,-0.3826954967583956,3.8754872275928833,2.5010915826245816,0,106,5,1,dws_1/sub_5.csv,4
107,-2.566676,-1.2082913,0.6180138,-0.19271731,0.935024,0.297593,-0.18623266,0.3680476,0.12030489,-1.846075813809208,-0.6271319470698272,0.8263113799534727,0,107,5,1,dws_1/sub_5.csv,4
108,-2.5408757,-1.217227,0.62641996,-0.19595991,0.93816525,0.2855078,0.3113552,0.6498022,-0.0079419315,-2.6304515090178304,2.3632279704953016,2.6114306103324156,0,108,5,1,dws_1/sub_5.csv,4
109,-2.4703505,-1.234332,0.65946347,-0.204971,0.94388473,0.25864494,0.44723898,0.45538795,0.09644104,-3.686371663333483,0.5753154415687243,-0.8222284010586439,0,109,5,1,dws_1/sub_5.csv,4
110,-2.5289655,-1.2311478,0.6275776,-0.1918546,0.942944,0.27237633,-1.033271,-1.2425308,0.09342537,1.3229284170752167,0.9752663012890123,-3.093976416479506,0,110,5,1,dws_1/sub_5.csv,4
111,-2.6902163,-1.1464449,0.50474936,-0.17949718,0.911245,0.37058866,-2.258755,-0.30314693,-0.19888827,3.33026369015606,1.6633423792322404,-1.1330805672059279,0,111,5,1,dws_1/sub_5.csv,4
112,-2.7134748,-1.0560142,0.4516427,-0.20429167,0.87045383,0.4478072,-1.3732687,0.7790126,-0.31822935,-0.34333973382093286,3.6649379188872215,2.5812756282889735,0,112,5,1,dws_1/sub_5.csv,4
113,-2.7076917,-1.0304857,0.43592542,-0.21651122,0.8575268,0.4666869,0.2911015,0.04503435,0.12544471,-0.40930369487115736,-1.8534365625492308,1.0994718666800825,0,113,5,1,dws_1/sub_5.csv,4
114,-2.6770594,-1.0850973,0.46700996,-0.2089257,0.88440514,0.41736895,1.4607136,0.1887191,0.21581253,1.4310850435245668,-4.0534900996503085,1.2079745930981851,0,114,5,1,dws_1/sub_5.csv,4
115,-2.632457,-1.143855,0.50580496,-0.2019977,0.910205,0.36147168,0.956914,0.15840787,0.28615218,0.4380888313917395,-5.594314256802524,1.8951949895649034,0,115,5,1,dws_1/sub_5.csv,4
116,-2.5935247,-1.198278,0.53680295,-0.189513,0.9314384,0.31069696,1.2650679,0.25678694,0.3414463,0.01598287712542257,-3.436370700910913,-0.46238023711003334,0,116,5,1,dws_1/sub_5.csv,4
117,-2.498407,-1.2536196,0.629782,-0.18714944,0.95012087,0.24939598,1.0469093,0.023035288,-0.16573301,1.1233637510769656,2.4872063266723945,-0.6270018707107757,0,117,5,1,dws_1/sub_5.csv,4
118,-2.4488869,-1.261367,0.68633765,-0.19432026,0.95250434,0.23448786,-0.17883241,-0.17316051,0.1055877,1.5035782870824674,3.6955408872137565,-3.0880637018696477,0,118,5,1,dws_1/sub_5.csv,4
119,-2.5645044,-1.2625349,0.579534,-0.16566241,0.9528576,0.25406113,-0.25921482,-0.3708466,0.63686836,-2.4969767504579576,4.210721420516692,-2.0149521364096414,0,119,5,1,dws_1/sub_5.csv,4
120,-2.5882013,-1.2713171,0.56464976,-0.15487203,0.9555066,0.25098568,0.40986517,0.027850598,-0.1518787,-1.8818739290957889,2.0994249257300694,1.669063714962243,0,120,5,1,dws_1/sub_5.csv,4
121,-2.5159686,-1.2983563,0.6443015,-0.15777843,0.96310496,0.2180666,0.81977576,-0.35604474,0.053970747,-1.1503777910956625,0.13077084903576083,-1.5751493119840585,0,121,5,1,dws_1/sub_5.csv,4
122,-2.465706,-1.3261731,0.7203272,-0.15117432,0.97021955,0.1889526,0.50364304,-0.2936203,-0.006773986,2.13201939926005,-2.4017522861561176,0.36994500862809676,0,122,5,1,dws_1/sub_5.csv,4
123,-2.4402854,-1.3403788,0.742706,-0.1478219,0.9736572,0.17431745,0.07286314,0.207888,0.16994745,0.7672359503548977,-2.5894339577020435,-1.6518527306487412,0,123,5,1,dws_1/sub_5.csv,4
124,-2.4759932,-1.330496,0.7013727,-0.14630179,0.9711378,0.1873397,-0.5500081,0.059053004,-0.09430384,-0.2711888088437079,-1.4370228372986147,-0.23110854452144416,0,124,5,1,dws_1/sub_5.csv,4
125,-2.5663345,-1.2942662,0.60385305,-0.1492995,0.962225,0.22881567,-1.2430758,-0.069473654,0.04501342,-0.14266889935585408,-2.106525994440953,-2.565115841642054,0,125,5,1,dws_1/sub_5.csv,4
126,-2.6885777,-1.2089052,0.49837202,-0.15426065,0.93496776,0.31847644,-2.1064126,-0.4970811,-0.62415147,0.7911264601693894,4.299743605472308,-0.9489675341437086,0,126,5,1,dws_1/sub_5.csv,4
127,-2.687198,-1.1151458,0.4848842,-0.19341514,0.8981361,0.39528102,-1.2712302,0.9617191,-0.4612435,1.1365674358890807,5.5933442342028625,4.333402925287867,0,127,5,1,dws_1/sub_5.csv,4
128,-2.6883588,-1.0861828,0.43575233,-0.20398572,0.88487095,0.41873568,-0.2007032,0.37535262,0.44993538,-2.90063103898821,2.0271428711810597,2.591155577938016,0,128,5,1,dws_1/sub_5.csv,4
129,-2.672336,-1.1273067,0.44538504,-0.19368379,0.90309507,0.38281947,1.5199989,0.34829837,0.14674675,2.087913660318749,3.3742320719588914,4.717389737296637,0,129,5,1,dws_1/sub_5.csv,4
130,-2.5667512,-1.2113699,0.5240715,-0.19185574,0.93634456,0.29495102,1.7739776,0.58714896,0.5054488,-0.13400702484242905,-8.183974285128489,-3.0756866230705433,0,130,5,1,dws_1/sub_5.csv,4
131,-2.4735644,-1.3000156,0.6230051,-0.16481163,0.963345,0.21034227,1.7441556,-0.3871093,0.40617502,-3.025352901249074,-9.195835816924376,-1.6913878987652522,0,131,5,1,dws_1/sub_5.csv,4
132,-2.349329,-1.3356267,0.771591,-0.16676436,0.9725348,0.16317305,0.20668222,-0.3948003,-0.44725856,3.2936034019571614,-7.41240906519576,-1.9493818678676014,0,132,5,1,dws_1/sub_5.csv,4
133,-2.3874147,-1.3024254,0.7521172,-0.18079822,0.9642039,0.19334489,-0.8553388,-0.22906813,-0.20481141,2.9140519407059706,0.048911466374146506,-3.833427848037749,0,133,5,1,dws_1/sub_5.csv,4
134,-2.4503603,-1.2781351,0.6758043,-0.1845273,0.95746475,0.22220947,-0.49825642,0.3592949,0.08233967,-2.5391557170414853,6.086365514712707,2.8491778480987433,0,134,5,1,dws_1/sub_5.csv,4
135,-2.4945226,-1.2706332,0.61987895,-0.17754333,0.9552555,0.2358615,-0.21163376,-0.019541979,0.22048733,-2.9492008190069323,3.4908086854571954,1.6797051329593908,0,135,5,1,dws_1/sub_5.csv,4
136,-2.589887,-1.2534785,0.5373414,-0.16432878,0.9501515,0.26573378,-1.1267653,-0.703738,0.21414757,-1.73533675435928,0.7924936171043723,-0.20346090159780023,0,136,5,1,dws_1/sub_5.csv,4
137,-2.770774,-1.1733214,0.3922822,-0.13943757,0.921964,0.36069575,-2.240859,-0.604923,0.14737755,4.920745930780733,2.9618892739115075,-1.06492471237292,0,137,5,1,dws_1/sub_5.csv,4
138,-2.8001037,-1.086183,0.3291927,-0.15661241,0.88491434,0.43881232,-1.2344546,1.3586733,-0.25347173,-0.5430628717399743,2.810039703967047,2.0784656861413504,0,138,5,1,dws_1/sub_5.csv,4
139,-2.7381353,-1.0646099,0.33668602,-0.18986848,0.87460464,0.44613737,0.29014498,0.534196,-0.09128172,-1.3311330692558963,-2.3434627304484676,1.54927901824894,0,139,5,1,dws_1/sub_5.csv,4
140,-2.7223308,-1.1093819,0.3532526,-0.18150406,0.8954262,0.40646833,1.2318406,-0.17554793,0.48800927,0.9966007374909805,-1.7245343925903605,2.4204210284149195,0,140,5,1,dws_1/sub_5.csv,4
141,-2.7406774,-1.1842151,0.35056657,-0.14949623,0.9262551,0.34610265,1.41069,-0.107453555,0.61629254,-0.7902073710179063,-7.2230605883304,1.3398991548565313,0,141,5,1,dws_1/sub_5.csv,4
142,-2.7015848,-1.2607454,0.36694705,-0.12716088,0.9522778,0.27730158,1.4193553,0.28561014,0.43545628,1.1488908675115337,-3.7041034973014555,1.5065191743683761,0,142,5,1,dws_1/sub_5.csv,4
143,-2.6838107,-1.3124295,0.41891176,-0.11869416,0.9668494,0.22632092,0.6020508,-0.39033476,-0.05700013,1.7930054056842668,-0.08241851714440629,-2.2641391894607206,0,143,5,1,dws_1/sub_5.csv,4
144,-2.673482,-1.3055547,0.4129598,-0.10821067,0.9650006,0.23830105,-0.5933769,-1.1908556,0.23872039,1.7946359074038476,2.294097365334059,-3.0107421366015568,0,144,5,1,dws_1/sub_5.csv,4
145,-2.9248877,-1.2864851,0.29112267,-0.078625076,0.95986897,0.26953617,-0.34023842,-0.04593435,0.3867653,-2.14750167028875,6.102743028143088,2.4843542651199666,0,145,5,1,dws_1/sub_5.csv,4
146,-2.7358112,-1.2950275,0.29898047,-0.08062911,0.96220094,0.25983968,0.58272284,0.19848692,-0.15684631,-3.2696458725810316,3.028119291884557,1.2791751491407108,0,146,5,1,dws_1/sub_5.csv,4
147,-2.9679284,-1.3303243,0.34577322,-0.078875974,0.97125065,0.22474346,0.7200809,-0.5010294,0.12673911,-0.9989525149208033,1.67227532944786,-0.3248780589464793,0,147,5,1,dws_1/sub_5.csv,4
148,-2.5774407,-1.3574209,0.3280595,-0.061848015,0.9773154,0.2024737,0.36954546,-0.20544404,0.40441516,0.989498694132149,-2.7422579061931893,0.5616006702769127,0,148,5,1,dws_1/sub_5.csv,4
149,-3.499671,-1.3943751,0.17942435,-0.026533201,0.98451895,0.17333591,0.8777505,-0.056715995,0.91168356,-0.5657121002634874,-5.921060014775713,-0.8314732037726518,0,149,5,1,dws_1/sub_5.csv,4
150,1.2067804,-1.4476469,-0.0737347,0.014992282,0.99243134,0.12210866,1.0389047,-0.52885693,0.58238536,-0.6970951892338159,-2.8995636800197655,-0.1322097874951018,0,150,5,1,dws_1/sub_5.csv,4
151,2.9911647,-1.4799755,-0.4403249,0.044120967,0.9959505,0.07862274,0.61715585,-0.7585355,0.6061659,-1.655835914663104,-0.7230176775754027,0.05130243259511814,0,151,5,1,dws_1/sub_5.csv,4
152,2.393199,-1.4674076,-0.58623415,0.068983406,0.9946209,0.07759838,-0.7498736,-1.8186274,-0.08042813,-1.4779358619692837,1.965621980133925,-3.979352978366516,0,152,5,1,dws_1/sub_5.csv,4
153,2.2910848,-1.4239569,0.0051119328,0.029783234,0.9893314,0.1424596,-1.6990325,-0.35123354,-1.4059225,8.747256494932271,9.826240904746175,0.38400419706148925,0,153,5,1,dws_1/sub_5.csv,4
154,-3.0443306,-1.3416077,0.387385,-0.045063294,0.9737656,0.22313577,-1.5128188,0.53484374,-1.3670282,-4.397236662938885,4.948436928341759,-0.5389248503331859,0,154,5,1,dws_1/sub_5.csv,4
155,-2.683364,-1.2616131,0.6065908,-0.102710366,0.9526551,0.2859585,-0.8485038,-2.8307934,-1.7483466,-1.0425727902880924,4.287875721630781,-0.13245549334832998,0,155,5,1,dws_1/sub_5.csv,4
156,-2.854834,-1.2088987,0.79697853,-0.12578285,0.93518114,0.33126763,-0.4094177,-3.112514,-1.1885082,1.5035982343247127,-2.2819039134260315,0.2793377690772013,0,156,5,1,dws_1/sub_5.csv,4
157,-2.8027666,-1.1883506,0.88632745,-0.106929466,0.92779493,0.35722044,0.13929828,-3.1995118,-0.5527717,0.4053108342554608,-5.88656858311652,-2.371194962740346,0,157,5,1,dws_1/sub_5.csv,4
158,-2.9390872,-1.2034057,0.97736496,-0.08226368,0.9332852,0.3497821,0.58615285,-2.3952053,-0.58492446,3.3755297882593043,-5.319954153013781,1.2252595654371048,0,158,5,1,dws_1/sub_5.csv,4
159,-2.9156377,-1.2225802,1.0604837,-0.07343931,0.9399981,0.3330975,0.3877673,-1.5315778,-0.3908582,0.052199558143818214,-2.739525698308199,2.356510778663011,0,159,5,1,dws_1/sub_5.csv,4
160,-2.9421935,-1.2224766,1.1256659,-0.066790245,0.93995875,0.33476737,-0.236058,-1.8525367,-0.5266353,-1.8189522320826312,-1.9159914095092694,3.1989294521761233,0,160,5,1,dws_1/sub_5.csv,4
161,-2.987186,-1.1879478,1.204212,-0.06557315,0.9276465,0.36776298,-0.73595685,-1.5566809,-0.80556875,-1.2209484732450648,6.163941603076063,3.462348511046909,0,161,5,1,dws_1/sub_5.csv,4
162,-2.877439,-1.1515588,1.3237734,-0.0937534,0.91340804,0.39606494,-0.24481346,-1.0945604,-1.1932863,-2.184399350268353,2.6742160886132957,-2.3778505475544858,0,162,5,1,dws_1/sub_5.csv,4
163,-2.9767141,-1.1551981,1.4155121,-0.09095023,0.914895,0.39312387,0.61738855,-2.161315,-0.10924332,-0.40201591464473313,-1.2339491497850197,-3.280208676056303,0,163,5,1,dws_1/sub_5.csv,4
164,-2.9010916,-1.2067056,1.4053044,-0.050729766,0.9344579,0.35281372,1.3074362,-0.7734982,0.20977336,1.8621925582319416,2.8926493737051455,0.9498451997217374,0,164,5,1,dws_1/sub_5.csv,4
165,-3.1308374,-1.2838761,1.4503019,-0.04709836,0.95910704,0.27860704,1.7389,-0.25409487,-0.073765114,-1.0108908269798003,-2.400330806568962,-0.5786005495210427,0,165,5,1,dws_1/sub_5.csv,4
166,-2.7062361,-1.3724394,1.4826372,-0.03433957,0.980415,0.19444384,1.7554122,-0.86869854,0.2430864,0.44486129457242785,-2.0549397420753945,-1.0814603172474024,0,166,5,1,dws_1/sub_5.csv,4
167,-3.4945385,-1.4562247,1.5161843,-0.016560763,0.99345165,0.11238456,1.5782933,-0.8426784,0.22461203,1.0717683094476151,-1.343963617860075,-0.6789388560190563,0,167,5,1,dws_1/sub_5.csv,4
168,1.1882358,-1.5243392,1.2451708,0.0048074424,0.998981,0.046852767,1.1099184,-0.44552496,0.5486191,1.2769505555582459,-1.0849074366143177,0.14340465481436257,0,168,5,1,dws_1/sub_5.csv,4
169,2.0405898,-1.5355892,-0.055895507,0.03584391,0.99934167,0.00041095912,0.7638995,-0.16612302,0.56415355,0.16518245167870188,0.8599314720294075,0.5653995066391352,0,169,5,1,dws_1/sub_5.csv,4
170,1.0212262,-1.5110795,-0.6469997,0.053100303,0.99835867,-0.024107113,0.1586907,-0.6438603,0.14118195,-2.2599877016499823,2.4342145728452023,-0.48100424731760955,0,170,5,1,dws_1/sub_5.csv,4
171,1.3784206,-1.5299168,-0.14827973,0.041864082,0.9991549,-0.0070314705,-0.9331159,-1.2244384,-0.45554867,-2.119506672884892,3.487339202838277,-1.9277086512130404,0,171,5,1,dws_1/sub_5.csv,4
172,3.3421283,-1.4978791,1.2441638,0.01862298,0.9972473,0.07138401,-2.0513647,-1.7072527,-0.48390156,1.6745895577264875,1.5418738052720689,-2.8491674964727833,0,172,5,1,dws_1/sub_5.csv,4
173,0.095394135,-1.3930281,1.6591969,-0.004015982,0.9844624,0.17583144,-2.033142,-1.4051862,-0.9166945,-0.010494172275187622,2.333240627655237,-2.109593822960897,0,173,5,1,dws_1/sub_5.csv,4
174,-3.5923808,-1.3024794,1.8744614,-0.04780118,0.9640217,0.26131526,-1.4012856,-1.3415062,-1.3102348,1.8732618043274993,1.9013203605669093,-0.27976227119276453,0,174,5,1,dws_1/sub_5.csv,4
175,-2.5578809,-1.2399225,2.0502172,-0.08392219,0.94591993,0.3134156,-0.6673725,-1.9691052,-1.1848472,-1.0813839352746295,-1.3454561859943817,0.4210923103292267,0,175,5,1,dws_1/sub_5.csv,4
176,-3.0721118,-1.2063718,2.1768656,-0.092766725,0.9342173,0.34430397,-0.2447025,-2.6358886,-0.90781105,0.039185858191723724,-2.6686110377596597,0.40640859705380256,0,176,5,1,dws_1/sub_5.csv,4
177,-2.7724931,-1.1944623,2.293924,-0.08996362,0.9301185,0.35617578,0.15885548,-2.0753622,-0.8287353,3.4389830861410178,-4.684616220787515,0.06393515134006655,0,177,5,1,dws_1/sub_5.csv,4
178,-2.96104,-1.2015784,2.3821206,-0.09177806,0.9325841,0.3490561,0.35458377,-0.96338576,-0.29404992,2.3750696289402153,-3.880160192168066,3.067587369320589,0,178,5,1,dws_1/sub_5.csv,4
179,-2.8565142,-1.2150284,2.394592,-0.083044484,0.9374387,0.33824977,0.18137129,-0.55613214,0.014856763,-2.0308183513622264,-0.12271555260558416,3.319389023370859,0,179,5,1,dws_1/sub_5.csv,4
180,-2.9381597,-1.2092594,2.440379,-0.0813801,0.9353639,0.34419483,-0.23609792,-1.0559626,-0.60620344,-3.481103252047162,-0.7054670461321176,4.552014101474324,0,180,5,1,dws_1/sub_5.csv,4
181,-2.8124077,-1.1869124,2.5700877,-0.11641528,0.9272654,0.35594666,0.10127838,-1.0223684,-1.5642455,-5.018894166604532,3.6220918616398765,3.263440911758216,0,181,5,1,dws_1/sub_5.csv,4
182,-2.702948,-1.1782743,2.8256524,-0.16545478,0.9239208,0.3450616,0.5892002,-2.0686095,-1.4099752,1.448713254477551,3.1118574850990153,-2.433695140105966,0,182,5,1,dws_1/sub_5.csv,4
183,-2.725261,-1.183091,2.850506,-0.15258002,0.925867,0.34551,0.25004485,-1.3456857,0.3468633,2.5216885356473213,-3.5527870556692327,-1.1233714941953736,0,183,5,1,dws_1/sub_5.csv,4
184,-2.781065,-1.2282367,2.8896208,-0.1185664,0.9417685,0.31448,1.2387967,-0.33325702,0.28478074,-0.9373093274323805,3.586049939283462,-1.2178331624948153,0,184,5,1,dws_1/sub_5.csv,4
185,-2.7101476,-1.2933618,2.8951886,-0.11458506,0.96190894,0.24860123,1.4561929,-0.5790621,-0.13020104,0.3656533337882028,-2.0899349973463472,-0.1920680815549356,0,185,5,1,dws_1/sub_5.csv,4
186,-2.6158803,-1.3603148,3.082992,-0.10470194,0.97779673,0.18074802,1.4592465,-0.47463673,0.23172987,-0.1741084226642601,-0.9582214591061885,-1.203892769899738,0,186,5,1,dws_1/sub_5.csv,4
187,-2.4963026,-1.4212452,-2.2669623,-0.08976568,0.9889802,0.11886482,1.189026,-0.71162593,0.19967431,0.7415050700443719,-1.272929330571416,-0.19971065352189687,0,187,5,1,dws_1/sub_5.csv,4
188,-2.286572,-1.4740021,-3.039673,-0.07264548,0.9952466,0.06341988,1.1287191,-0.11053954,0.34880063,-0.42321356366440227,-0.5113420149771373,-0.09947382745919064,0,188,5,1,dws_1/sub_5.csv,4
189,-1.8982477,-1.5043877,-2.3151712,-0.06302775,0.9978664,0.021059424,0.5780883,-0.8113661,-0.017995045,-1.61813727722983,1.967917781905141,-0.7575952858385173,0,189,5,1,dws_1/sub_5.csv,4
190,-1.7898248,-1.493682,-2.314351,-0.07492605,0.9970427,0.016583562,-0.18311618,-1.3398526,-0.44673473,-0.0608273595101939,2.9270825356952708,-1.877924949028538,0,190,5,1,dws_1/sub_5.csv,4
191,-2.1490233,-1.4472225,-2.5061908,-0.10335912,0.9923456,0.06743497,-1.5928823,-1.2975316,-0.64994186,1.9446139418074915,3.9253881479027575,-2.299218893835462,0,191,5,1,dws_1/sub_5.csv,4
192,-2.5563462,-1.3585759,-2.9297788,-0.11614007,0.9776402,0.17542005,-2.1788974,-0.70499444,-0.1509925,2.249748637015123,1.4702810780258657,-1.2355524197858687,0,192,5,1,dws_1/sub_5.csv,4
193,-2.6997705,-1.2688237,-3.0294354,-0.12741244,0.9546893,0.26875114,-1.6790389,0.08324516,-0.52637047,-2.082491545661133,3.1684955737919993,-0.4145295167960664,0,193,5,1,dws_1/sub_5.csv,4
194,-2.701358,-1.19083,-3.031825,-0.15768816,0.92871016,0.33560342,-1.0045892,-0.95918214,-0.84926283,1.2011231184513416,-1.8765290023873056,-0.6834696372846496,0,194,5,1,dws_1/sub_5.csv,4
195,-2.71187,-1.155224,-2.9755688,-0.16859412,0.9149008,0.36686188,-0.113783486,-0.7624364,-0.42926925,0.8365050407565927,-3.9259283212736205,-0.31211089002463627,0,195,5,1,dws_1/sub_5.csv,4
196,-2.6837645,-1.1556942,-2.9245706,-0.17774786,0.91501975,0.36182916,0.38433063,-0.37045327,-0.40060908,1.6788422193382269,-4.530883318604408,0.45772449268839166,0,196,5,1,dws_1/sub_5.csv,4
197,-2.6454692,-1.1738007,-2.8675396,-0.18460669,0.9223424,0.33984601,0.6812147,-0.024332196,-0.026290838,0.9678083107331281,-5.020157200609105,0.4107337572607468,0,197,5,1,dws_1/sub_5.csv,4
198,-2.5989134,-1.216456,-2.8164663,-0.17860645,0.9377674,0.29724732,1.0087706,-0.20227851,0.16003361,-1.3441670777958772,-2.105584524100414,2.9103365385742763,0,198,5,1,dws_1/sub_5.csv,4
199,-2.5708702,-1.2611942,-2.7530448,-0.16513774,0.9525775,0.25617772,1.0879753,-0.9045959,0.061796434,-1.2707853192058094,0.8803001479088614,-1.16009490679774,0,199,5,1,dws_1/sub_5.csv,4
200,-2.4889019,-1.314002,-2.6194947,-0.15422352,0.96723896,0.201686,1.1004392,-0.9520623,-0.101465955,1.9948628711947394,-7.261417739307882,-3.7081950784947777,0,200,5,1,dws_1/sub_5.csv,4
201,-2.5101814,-1.2891704,-2.580106,-0.163088,0.9603673,0.22459508,-1.4447433,-1.2857134,-0.7284642,1.9211392463676924,1.7993420453512086,-0.5517650978897466,0,201,5,1,dws_1/sub_5.csv,4
202,-2.6046143,-1.21314,-2.6366103,-0.18008904,0.936972,0.3005151,-0.89686793,-0.32407477,-0.22222733,-1.3897363185051048,7.65161244606025,0.45211011952680125,0,202,5,1,dws_1/sub_5.csv,4
203,-2.6443741,-1.2037394,-2.6765792,-0.17043969,0.9332652,0.31553036,-0.18744789,-0.15323207,0.22509882,-2.492933217636457,1.3038258956164346,2.7896045471741475,0,203,5,1,dws_1/sub_5.csv,4
204,-2.6603594,-1.1904233,-2.6791956,-0.17234702,0.9285604,0.32889026,-0.134074,-0.17604072,-0.31458047,-3.158729174150256,3.7901744743598016,3.324732232640864,0,204,5,1,dws_1/sub_5.csv,4
205,-2.6596305,-1.1783383,-2.6743283,-0.17690186,0.9240332,0.33901998,-0.5711869,-0.12998152,0.008880459,0.620633189678864,-2.9379321401433476,-0.9379022201523163,0,205,5,1,dws_1/sub_5.csv,4
206,-2.7118285,-1.1156783,-2.7234936,-0.18359865,0.89811087,0.39934984,-1.6630813,-0.03919816,-0.4301327,2.1930612793373068,0.036418634841771796,-1.9777662612283002,0,206,5,1,dws_1/sub_5.csv,4
207,-2.7189286,-1.0406259,-2.7379436,-0.20694374,0.86276937,0.46138674,-1.1352831,0.20183629,-0.43355176,0.7288939859063307,-0.7409359267129064,-0.5237201724829303,0,207,5,1,dws_1/sub_5.csv,4
208,-2.6906512,-1.0019743,-2.734646,-0.2352005,0.84261453,0.48454124,-0.15438384,0.81233734,-0.2729412,0.6438378825636845,2.3956983404891794,3.990254908362225,0,208,5,1,dws_1/sub_5.csv,4
209,-2.6313462,-1.038461,-2.7101846,-0.24753562,0.8614548,0.4429813,1.3331699,0.4972592,0.49213457,-1.3743331310900653,-1.38070918620706,3.4622617539314726,0,209,5,1,dws_1/sub_5.csv,4
210,-2.6066751,-1.1073117,-2.6946301,-0.22821042,0.8947239,0.38451394,1.1088123,0.19794261,0.42697912,-1.8949377301962091,0.2914187065643699,4.098417037886989,0,210,5,1,dws_1/sub_5.csv,4
211,-2.5346427,-1.1705215,-2.6350052,-0.2218867,0.9207275,0.32016635,1.6465815,0.4001398,0.20872119,-0.025748946177777267,-0.5820366702684416,0.6776076823488739,0,211,5,1,dws_1/sub_5.csv,4
212,-2.3884807,-1.2377824,-2.4957647,-0.223836,0.9452759,0.23821211,1.5134242,0.26149398,-0.09635839,0.6735680633264294,-0.7089703685239592,-1.9016402700381014,0,212,5,1,dws_1/sub_5.csv,4
213,-2.2403445,-1.2787586,-2.3416076,-0.22570512,0.95750874,0.1788961,1.0108469,-0.31591332,0.14459848,0.8759654218496898,-7.852021687734645,-3.7061502603259955,0,213,5,1,dws_1/sub_5.csv,4
214,-2.2504098,-1.2976487,-2.3078718,-0.20949544,0.9630186,0.16944379,-0.1948145,-1.1093785,0.04835605,1.1479235522901794,0.4602324628298119,-2.1579243032075035,0,214,5,1,dws_1/sub_5.csv,4
215,-2.3247745,-1.2738178,-2.3474946,-0.21365437,0.95619506,0.20020622,-0.4723985,-0.21463358,-0.302884,0.693769410215894,6.965892320508671,-1.176637245841952,0,215,5,1,dws_1/sub_5.csv,4
216,-2.3545268,-1.2545013,-2.384368,-0.2198289,0.9503906,0.21962474,-0.46735668,0.040041476,0.041119613,-3.8440870126070252,1.2701581035953782,0.7965281684548781,0,216,5,1,dws_1/sub_5.csv,4
217,-2.4146802,-1.2416713,-2.427158,-0.21531244,0.94636023,0.24140419,-0.18372503,-0.45733142,-0.010732323,-0.4637882792973692,2.1920516365135243,2.2254021256421983,0,217,5,1,dws_1/sub_5.csv,4
218,-2.4142563,-1.2422092,-2.435124,-0.21391854,0.94644827,0.24108006,-0.042788055,0.63914615,0.1088612,-1.8067481827174297,0.36542521163460834,1.5110634596411074,0,218,5,1,dws_1/sub_5.csv,4
219,-2.4423523,-1.2295316,-2.4839392,-0.21622527,0.94244444,0.25599617,-0.8269683,-0.21988808,-0.006445557,-0.42441418291032523,-1.2039894496800656,-3.0715778603658324,0,219,5,1,dws_1/sub_5.csv,4
220,-2.5873475,-1.1647079,-2.5959454,-0.20694824,0.9185218,0.33595067,-1.9988806,-0.9639649,-0.17589974,1.8587218465772428,-0.6019557012520382,-2.141359679560213,0,220,5,1,dws_1/sub_5.csv,4
221,-2.6699097,-1.0718048,-2.6647694,-0.21815413,0.87823534,0.42610526,-1.5740168,0.13627714,-0.5261889,1.5295576825722352,1.4552374481278778,0.9545625801281309,0,221,5,1,dws_1/sub_5.csv,4
222,-2.653174,-1.0230887,-2.6781821,-0.24394314,0.8535809,0.45994854,-0.3714361,0.79927117,-0.027822182,1.5677450494027416,2.457938569935732,2.4248485144450527,0,222,5,1,dws_1/sub_5.csv,4
223,-2.6092985,-1.0524709,-2.679158,-0.25159565,0.8687866,0.42673558,1.2269844,0.9001846,0.5175938,-0.7275089077694723,-1.2949872619555902,1.8970671208788266,0,223,5,1,dws_1/sub_5.csv,4
224,-2.5450904,-1.1333933,-2.6472993,-0.2379443,0.9057755,0.35047355,1.4638385,0.53264034,0.61192334,-0.8204123694678829,-2.9684898683785823,3.232975601021207,0,224,5,1,dws_1/sub_5.csv,4
225,-2.4883764,-1.1986935,-2.6006744,-0.22096577,0.93162566,0.2886069,1.280841,0.041276842,0.37034413,-0.8457459403652929,-5.95504974466861,0.20609772691568803,0,225,5,1,dws_1/sub_5.csv,4
226,-2.389305,-1.2572548,-2.4853637,-0.21067594,0.95122766,0.2252176,1.2855418,-0.28683957,-0.1016809,0.5685123736945817,0.921163754186614,-1.0249650730949886,0,226,5,1,dws_1/sub_5.csv,4
227,-2.3005793,-1.2666464,-2.377745,-0.22319937,0.9540851,0.19968632,-0.0054839784,-0.32411504,-0.24539539,1.936064099497249,2.6199085326192146,-2.631220549705965,0,227,5,1,dws_1/sub_5.csv,4
228,-2.3829005,-1.2646351,-2.442,-0.20741788,0.9535282,0.21847466,-0.30488485,-0.336376,0.48029143,0.47178474170802326,3.7731298711634627,-2.1591021678614526,0,228,5,1,dws_1/sub_5.csv,4
229,-2.4074283,-1.261549,-2.4790812,-0.20374069,0.952531,0.22597407,-0.16096257,0.6362355,-0.2166667,-1.6312420706960395,3.595619386342965,1.1260719770190901,0,229,5,1,dws_1/sub_5.csv,4
230,-2.369262,-1.2538329,-2.4549046,-0.2176405,0.95022225,0.2231892,0.22182624,-0.25018263,-0.06422772,-1.5521875986436549,-0.7923433505724953,-1.4001855027482555,0,230,5,1,dws_1/sub_5.csv,4
231,-2.353096,-1.2717869,-2.4048424,-0.20861377,0.95560116,0.20767172,0.52044827,-0.56387025,0.045330398,1.0818838049875588,-1.8138127402305817,-0.6656320912986601,0,231,5,1,dws_1/sub_5.csv,4
232,-2.3338754,-1.2807945,-2.3819413,-0.20711902,0.9583012,0.19747587,-0.12344869,0.24381459,0.02792719,1.0138330626163674,-1.083397332861786,-0.28324992825022155,0,232,5,1,dws_1/sub_5.csv,4
233,-2.3804781,-1.2669315,-2.442289,-0.20570162,0.954122,0.21675752,-0.6079586,0.16320503,0.114203386,-1.0130742172235134,-2.1887044170825796,-0.4681796405012217,0,233,5,1,dws_1/sub_5.csv,4
234,-2.4736717,-1.2472005,-2.5413542,-0.19777936,0.9482235,0.24938847,-0.91270643,-0.21045731,0.1998125,-0.42519223608532863,-1.5516563609770766,-2.5610789980591013,0,234,5,1,dws_1/sub_5.csv,4
235,-2.6177602,-1.1825097,-2.6628897,-0.18840608,0.92536575,0.32806152,-2.0215576,-0.6893228,-0.2604336,0.4826676706461896,4.056375276522941,-1.3300725345222877,0,235,5,1,dws_1/sub_5.csv,4
236,-2.6622276,-1.085623,-2.712485,-0.21576115,0.8848051,0.4134702,-1.5063845,0.69256693,-0.6887094,1.1986195652153702,4.390463075076583,3.9846916534684524,0,236,5,1,dws_1/sub_5.csv,4
237,-2.6296568,-1.0399318,-2.7187808,-0.24766025,0.86222064,0.4415185,-0.32018074,0.48129708,-0.024711668,-0.4558214020667793,1.5406743298752272,1.1822692814366973,0,237,5,1,dws_1/sub_5.csv,4
238,-2.6167388,-1.0567627,-2.7174025,-0.2465488,0.8709036,0.4253497,0.78125834,0.26400357,0.17897874,0.2542651835818438,-2.3512714589448804,1.1593654312369948,0,238,5,1,dws_1/sub_5.csv,4
239,-2.5607255,-1.1109308,-2.6754725,-0.24355859,0.89603674,0.3710779,1.293752,0.33242995,0.3311283,0.7596098149229277,-2.802214337702172,1.330745091148678,0,239,5,1,dws_1/sub_5.csv,4
240,-2.5015395,-1.1763248,-2.6188643,-0.22941333,0.9232551,0.30815226,1.3419352,0.06581393,0.34369552,-0.908211827100952,-7.041149687603082,-0.09220447199684684,0,240,5,1,dws_1/sub_5.csv,4
241,-2.4314587,-1.2333415,-2.5407696,-0.21593711,0.9435785,0.25106332,1.0655036,-0.24262029,0.19168544,0.08515109092088173,-2.2844477485444608,0.4999199880413957,0,241,5,1,dws_1/sub_5.csv,4
242,-2.3941565,-1.25068,-2.483905,-0.21380168,0.9491807,0.2306829,-0.047862593,-0.22474824,-0.2162343,2.3420502241886214,5.1928968759298755,-0.7491778087649285,0,242,5,1,dws_1/sub_5.csv,4
243,-2.413449,-1.2347702,-2.5061703,-0.21943678,0.94410837,0.24612714,-0.30667073,-0.0567832,0.09593185,-1.9083609425524872,3.4382008359032565,-4.62103145099449,0,243,5,1,dws_1/sub_5.csv,4
244,-2.4643624,-1.2428398,-2.5394845,-0.20182988,0.9466869,0.2509831,0.17811188,-0.39049,0.30466577,0.49941881868266796,4.016280672887584,-0.11402883183421451,0,244,5,1,dws_1/sub_5.csv,4
245,-2.4468083,-1.2576466,-2.5399654,-0.19711566,0.9513724,0.23656927,0.3235199,0.9259967,0.10187318,-0.8002432506975293,2.45036823820898,0.03857247359575136,0,245,5,1,dws_1/sub_5.csv,4
246,-2.3739378,-1.2789448,-2.4945762,-0.1999526,0.9577301,0.20696683,0.56444937,0.05013448,0.09988747,-1.240536068939231,-1.3323559746617342,-1.560003351423237,0,246,5,1,dws_1/sub_5.csv,4
247,-2.349054,-1.298741,-2.4613836,-0.19109806,0.963188,0.18867657,0.27103084,0.0118891895,0.18946603,1.234250944720687,-2.168774427836399,0.0009307580699682576,0,247,5,1,dws_1/sub_5.csv,4
248,-2.3456564,-1.3112565,-2.4645896,-0.18368442,0.9666042,0.17934996,0.03827816,0.027105004,0.13487533,-0.15722018936954132,-3.529793780378354,-1.4541231614697085,0,248,5,1,dws_1/sub_5.csv,4
249,-2.3832142,-1.3054702,-2.4966824,-0.17985792,0.96487236,0.1905199,-0.38236287,-0.1701382,0.021615386,-1.5949933140067787,-0.6292884545483765,-0.00041055084358490286,0,249,5,1,dws_1/sub_5.csv,4
250,-2.4936616,-1.281563,-2.588226,-0.1726541,0.9586927,0.22713184,-1.0730668,-0.8359027,0.018724129,-0.526048962962206,0.003505079564561458,-3.328817394387493,0,250,5,1,dws_1/sub_5.csv,4
251,-2.6317856,-1.2000353,-2.6826046,-0.17631055,0.9317408,0.31636515,-2.0577629,-0.6732513,-0.71187997,3.005834282274128,2.180676824946129,-0.12066210145003324,0,251,5,1,dws_1/sub_5.csv,4
252,-2.6443257,-1.1050224,-2.7027159,-0.21455754,0.89376545,0.39458588,-1.3023702,0.57182133,-0.6286766,0.11539709579401272,3.0599460695377108,2.32972090561517,0,252,5,1,dws_1/sub_5.csv,4
253,-2.6270216,-1.0619183,-2.7075932,-0.23941469,0.8730629,0.42416382,-0.34706524,0.1976915,-0.22117153,-0.9018369593911615,2.136902139909652,2.5171175014100418,0,253,5,1,dws_1/sub_5.csv,4
254,-2.6053307,-1.0798492,-2.6882489,-0.24124292,0.88205427,0.40511036,1.0435268,0.12912396,0.26375616,-0.09932064955568452,1.7252630979657042,3.691580225724843,0,254,5,1,dws_1/sub_5.csv,4
255,-2.5543268,-1.1501321,-2.6468513,-0.22589341,0.91272146,0.3400697,1.4583442,0.34454983,0.49030524,-0.5562267579812695,-1.9315249755898944,1.2424512081624903,0,255,5,1,dws_1/sub_5.csv,4
256,-2.4903784,-1.2301526,-2.5810714,-0.2027738,0.9425831,0.26550964,1.8036139,-0.3309856,0.6147257,0.5785412535547613,-7.690971001601963,-2.855998127490258,0,256,5,1,dws_1/sub_5.csv,4
257,-2.4059176,-1.3097639,-2.4541936,-0.17311332,0.96617836,0.19131473,1.2186501,-0.91135,0.06745308,-1.1842924437497757,-7.995383992794074,-2.3269676802173804,0,257,5,1,dws_1/sub_5.csv,4
258,-2.363655,-1.2976454,-2.3666742,-0.18901163,0.96278584,0.1921964,-0.52468115,-0.7807765,-0.70254076,5.158152254851861,-4.43647237663996,-1.7790343359254437,0,258,5,1,dws_1/sub_5.csv,4
259,-2.4242015,-1.255037,-2.4021058,-0.20438151,0.95067567,0.23388343,-0.6414584,-0.2196617,-0.08895727,-0.7314988295360403,8.316446389459811,1.895591012892691,0,259,5,1,dws_1/sub_5.csv,4
260,-2.4945135,-1.2390665,-2.4810903,-0.19612901,0.9454113,0.25980553,-0.47919685,0.13601986,0.2976809,-1.7837870443734496,3.5243683681798528,1.6048711418059007,0,260,5,1,dws_1/sub_5.csv,4
261,-2.5238771,-1.2364408,-2.5082448,-0.19005096,0.944646,0.26747912,0.11672262,-0.30295554,-0.10419043,-3.8938193492608106,1.3925079464482926,1.6042699310249753,0,261,5,1,dws_1/sub_5.csv,4
262,-2.5544853,-1.2204394,-2.5133412,-0.19012702,0.9392663,0.28567088,-0.9382971,-0.5274279,-0.058792323,0.6609737378929724,0.1033442656281929,-1.066841976457031,0,262,5,1,dws_1/sub_5.csv,4
263,-2.6536171,-1.1476123,-2.6146855,-0.19248965,0.91174924,0.3627311,-1.8818983,0.28532338,-0.2743846,3.7783697762488186,1.131114829045732,-2.1344118663502467,0,263,5,1,dws_1/sub_5.csv,4
264,-2.660534,-1.0721915,-2.643057,-0.22138214,0.87830824,0.4238318,-0.98719573,0.2897126,-0.44008753,-0.027232275822782443,1.0749052835121709,-0.07323914507721867,0,264,5,1,dws_1/sub_5.csv,4
265,-2.6603916,-1.0519166,-2.6493523,-0.22910255,0.868314,0.43967772,0.12024258,-0.0227122,0.06348037,-1.2426865310023025,0.8538667295306562,3.4562405120839754,0,265,5,1,dws_1/sub_5.csv,4
266,-2.6459434,-1.0900173,-2.628392,-0.22058392,0.886707,0.40658504,1.2437469,0.0039336383,0.28059328,0.9260099994698152,2.7479012515661916,4.662077677946157,0,266,5,1,dws_1/sub_5.csv,4
267,-2.5868042,-1.1664656,-2.580754,-0.20644814,0.9192978,0.33462846,1.6504982,0.425084,0.49154127,-1.4460557129607003,-3.2312069935502903,0.8047505512809775,0,267,5,1,dws_1/sub_5.csv,4
268,-2.5252538,-1.254821,-2.5033202,-0.18031812,0.95056224,0.25322548,1.89261,-0.87888026,0.53467816,0.5661558312001744,-4.445764303595729,-4.611168568880417,0,268,5,1,dws_1/sub_5.csv,4
269,-2.444684,-1.3317019,-2.3621845,-0.1516408,0.9715058,0.18165228,1.2164317,-1.0474356,0.053921796,0.22242821742441501,-11.088921250890518,-1.947066143176614,0,269,5,1,dws_1/sub_5.csv,4
270,-2.4405036,-1.3328065,-2.3000379,-0.15180653,0.97183406,0.18003428,-0.57882726,-1.286864,-0.2516435,3.819916345780716,-3.7820199544511945,-4.454511922113636,0,270,5,1,dws_1/sub_5.csv,4
271,-2.5633774,-1.2909051,-2.3943908,-0.15135264,0.96108896,0.23120515,-1.0105593,0.3670097,-0.05526111,1.2031298955277512,10.09300467841815,0.7657779320201279,0,271,5,1,dws_1/sub_5.csv,4
272,-2.5911355,-1.2667644,-2.4790184,-0.15634017,0.9541257,0.25515306,-0.4119474,0.918081,0.38623402,-4.6488283924516045,0.9939288718805733,1.960224428591138,0,272,5,1,dws_1/sub_5.csv,4
273,-2.6589637,-1.2710409,-2.5352366,-0.13697983,0.9554038,0.26155707,0.16503847,-1.116282,0.09312203,-6.22241225030013,2.151609607144263,1.594365423603253,0,273,5,1,dws_1/sub_5.csv,4
274,-2.6944644,-1.2758254,-2.5076625,-0.12600671,0.9568623,0.26197687,-0.085769355,-1.1143098,-0.05150775,0.2537297908270266,1.034823034682561,0.564471711930338,0,274,5,1,dws_1/sub_5.csv,4
275,-2.7899184,-1.2367381,-2.565883,-0.112440646,0.9446216,0.30793965,-1.463364,-0.52806425,-0.12037465,3.1084823335006626,1.6241132187698095,-2.837954162255657,0,275,5,1,dws_1/sub_5.csv,4
276,-2.792996,-1.1526208,-2.5524118,-0.1390837,0.9139706,0.38140857,-1.3059188,-0.2860566,-1.0064418,0.5135023058492719,-0.19331389470754592,-0.03304316136303212,0,276,5,1,dws_1/sub_5.csv,4
277,-2.7675543,-1.100182,-2.4886012,-0.16536103,0.8911439,0.42220217,-0.40896106,-0.94279057,-0.68110657,-2.204323117238475,4.072808011200262,3.6962239097942153,0,277,5,1,dws_1/sub_5.csv,4
278,-2.7682905,-1.0938673,-2.4357536,-0.16762021,0.88856864,0.4272948,0.4972221,-0.85776544,-0.37292096,1.2085554946594912,-2.746556676625584,1.8949001471449542,0,278,5,1,dws_1/sub_5.csv,4
279,-2.7590127,-1.1317205,-2.375628,-0.15859863,0.90501726,0.3944142,1.0899949,-0.99366015,-0.13536245,0.29750675446332425,-6.742517022848897,0.017466706870406305,0,279,5,1,dws_1/sub_5.csv,4
280,-2.7349715,-1.184294,-2.2968924,-0.14899158,0.9264213,0.3460992,1.4304433,-0.82291186,-0.1906442,2.505690730748344,-4.343895732407353,0.019049965595372555,0,280,5,1,dws_1/sub_5.csv,4
281,-2.6859524,-1.2647437,-2.1920655,-0.13503961,0.9533886,0.269569,1.7841759,-1.0551157,0.24513286,0.023053275611556855,-4.6320199716047235,0.06662097044923551,0,281,5,1,dws_1/sub_5.csv,4
282,-2.689245,-1.3113538,-2.1582427,-0.10868178,0.9666269,0.23197034,0.082927175,-1.064445,0.007276006,1.4745498078804198,4.603920179084291,2.813965211288524,0,282,5,1,dws_1/sub_5.csv,4
283,-2.7368135,-1.2806709,-2.1267195,-0.12022413,0.9581792,0.260045,-0.8206215,-0.1380451,-0.3877529,1.0851653667249668,-2.2839423886240504,5.072026555178764,0,283,5,1,dws_1/sub_5.csv,4
284,-2.7752137,-1.2156013,-2.2384298,-0.111231506,0.93752354,0.32881808,-1.8068923,-1.1653502,0.12446018,-3.3820273194379733,15.546895500743544,-4.404682654077534,0,284,5,1,dws_1/sub_5.csv,4
285,-2.927346,-1.1281128,-2.1833332,-0.11479971,0.90374386,0.4127211,-1.2231524,-0.6800604,-0.9070989,-2.9783455967560575,-0.850909285426007,0.668464912829988,0,285,5,1,dws_1/sub_5.csv,4
286,-2.7578602,-1.1296605,-2.2166002,-0.12710355,0.90407664,0.40755635,1.1923984,-0.7696657,-0.042700343,1.2922053036769228,3.3319709121033196,0.9770334045200307,0,286,5,1,dws_1/sub_5.csv,4
287,-2.9491243,-1.2175369,-2.0234933,-0.106721155,0.9384515,0.32888877,1.9982595,0.51594615,0.4231844,0.5524067024387419,2.7025481569178376,0.19716331377005436,0,287,5,1,dws_1/sub_5.csv,4
288,-2.5397632,-1.3256494,-2.2253633,-0.09568021,0.969928,0.2233146,2.216205,-0.0027058125,0.5050718,-0.06263676856687915,-4.73772976523186,-1.5662518703550643,0,288,5,1,dws_1/sub_5.csv,4
289,-3.1400561,-1.4325525,-1.7610238,-0.053233847,0.990644,0.12663251,1.744798,-0.5398355,0.8674691,0.541184998103751,-2.4267966912676076,-0.12654337394489495,0,289,5,1,dws_1/sub_5.csv,4
290,-1.1818894,-1.5110689,-2.8057115,-0.011397004,0.99814564,0.058529645,1.0676395,-0.32231158,0.78080904,0.5038505856762727,-3.538149129565475,-1.2972644723400633,0,290,5,1,dws_1/sub_5.csv,4
291,3.0413456,-1.534563,-0.031888127,0.024717435,0.99942863,0.026441947,0.29495546,-0.32056218,0.56500536,0.41390483574726966,1.6747236431976764,0.2977650657618724,0,291,5,1,dws_1/sub_5.csv,4
292,1.6719632,-1.5242631,3.500058,0.0390203,0.9989177,0.025482208,-0.22157049,-0.4225285,0.042912923,-3.7729351656847556,2.2259142902076214,0.5114830637971204,0,292,5,1,dws_1/sub_5.csv,4
293,3.2947865,-1.5000048,-2.300791,0.030573666,0.997527,0.062948585,-1.3794906,-1.7534683,-0.41980937,-0.9128751626130435,3.019696595585068,-2.8835649662669063,0,293,5,1,dws_1/sub_5.csv,4
294,1.1243966,-1.411141,-2.3004081,0.008107632,0.9873109,0.15902296,-2.2447057,-2.1194139,-0.93593276,1.7568101938209062,2.384473611712926,-3.2731752329720782,0,294,5,1,dws_1/sub_5.csv,4
295,-3.4285698,-1.3046104,-2.0067816,-0.032490425,0.96475697,0.26070702,-1.7965708,-2.118582,-1.5095686,-0.34572104626556305,3.1495720477276445,-2.686468540533194,0,295,5,1,dws_1/sub_5.csv,4
296,-2.716255,-1.2228677,-1.7700615,-0.074691474,0.9401072,0.33279723,-1.0454532,-2.0083761,-1.53468,2.135309299442275,0.6508115858195513,0.13985813677031628,0,296,5,1,dws_1/sub_5.csv,4
297,-2.986799,-1.1735693,-1.5964928,-0.10685037,0.9221279,0.37162143,-0.23696032,-2.9838266,-1.6344472,-3.185887366480815,-2.886020800729959,0.10506972585143672,0,297,5,1,dws_1/sub_5.csv,4
298,-2.8155117,-1.1558359,-1.4259655,-0.097242534,0.91514754,0.391275,0.098832175,-3.9848902,-0.99695706,1.4926724241685836,-4.196266583059457,-1.309798369451752,0,298,5,1,dws_1/sub_5.csv,4
299,-3.036155,-1.1555785,-1.3291584,-0.06450722,0.9150621,0.39815423,0.23782445,-2.7129872,-0.6878955,4.597048874546834,-3.338065712798406,-0.2447671405876569,0,299,5,1,dws_1/sub_5.csv,4
300,-2.9770138,-1.1737906,-1.2644854,-0.05283293,0.9222407,0.3829876,0.5709537,-1.1733233,-0.24527976,2.3463376996020466,-3.3644077543667272,3.0225129528030497,0,300,5,1,dws_1/sub_5.csv,4
301,-3.049377,-1.1929271,-1.2300591,-0.038085803,0.92951024,0.36699402,0.10055812,-1.2913585,-0.32612914,-3.0872616938031876,-1.6791510594500818,3.5354573980382646,0,301,5,1,dws_1/sub_5.csv,4
302,-3.0190897,-1.174793,-1.1293939,-0.054245338,0.9226326,0.38175872,-0.41814178,-1.2097507,-1.2053957,-3.570868157938393,3.2340641761130433,4.910410988303906,0,302,5,1,dws_1/sub_5.csv,4
303,-2.9032745,-1.1527115,-0.9873102,-0.08114505,0.91390866,0.39785606,-0.054534957,-1.3388934,-0.9431701,-1.0375619534116158,6.0148350615098565,1.7248324778783244,0,303,5,1,dws_1/sub_5.csv,4
304,-3.0032563,-1.1582364,-0.9008236,-0.08540443,0.91614574,0.39174703,0.51503646,-1.4068174,-0.44088194,1.1809407085389059,-3.62872649911224,-3.410378760971572,0,304,5,1,dws_1/sub_5.csv,4
305,-2.8649023,-1.1994575,-0.8693409,-0.05602134,0.9317949,0.35833365,1.108911,-1.9848294,0.16035149,-1.0191031897976477,0.7888954326653957,-2.2126853787158756,0,305,5,1,dws_1/sub_5.csv,4
306,-3.2499352,-1.263988,-0.8584825,-0.025746092,0.95337176,0.30095655,1.3911324,-1.1364269,-0.14293079,1.5237440618421065,0.21671539958129019,0.8997228371748582,0,306,5,1,dws_1/sub_5.csv,4
307,-2.7044973,-1.3342988,-0.78973997,-0.02677548,0.972097,0.23269963,1.4131607,-0.52130234,-0.10443357,0.8482681486621615,-2.7304776652808367,-0.3308963467949273,0,307,5,1,dws_1/sub_5.csv,4
308,-3.6833782,-1.4011313,-0.7876454,-0.015127048,0.9857397,0.1680356,1.303496,-0.7724124,0.182437,-0.01921137469758749,-0.771201047053814,-0.7409459520183855,0,308,5,1,dws_1/sub_5.csv,4
309,0.07917738,-1.4659884,-0.8255097,-0.0010599494,0.99449235,0.10457884,1.2149272,-0.43181252,0.23126349,0.7849493684082343,-1.2894509564406507,0.13711556735959585,0,309,5,1,dws_1/sub_5.csv,4
310,3.2978148,-1.5131084,-1.1737441,0.018872052,0.99840134,0.054129317,0.84881026,-0.29267251,0.45075607,0.1561077181579827,-1.0090636904110617,-0.21648706221154995,0,310,5,1,dws_1/sub_5.csv,4
311,1.9413991,-1.5292087,-1.8629026,0.03696373,0.9991855,0.019351631,0.4851992,-0.28313267,0.23149532,1.1341907538436387,1.2100882306308305,-0.4852695379121077,0,311,5,1,dws_1/sub_5.csv,4
312,1.6825945,-1.5242063,-2.205368,0.044689983,0.9989097,0.010063291,-0.018361919,-0.256594,0.066627584,-2.856277172448674,2.8350096124132027,-0.7883231613522524,0,312,5,1,dws_1/sub_5.csv,4
313,2.6835384,-1.5346625,-1.584264,0.028157502,0.99952394,0.021709234,-0.60281473,-0.85509735,-0.73930204,-1.9166910474805128,5.947184797177306,-0.9014910388735458,0,313,5,1,dws_1/sub_5.csv,4
314,-1.0185912,-1.4792941,-0.5399838,-0.0145282,0.9954985,0.09136981,-2.0253675,-1.8741999,-0.9054879,1.1961655149378896,1.2684401436866284,-3.408665248928062,0,314,5,1,dws_1/sub_5.csv,4
315,-3.448512,-1.3583659,-0.39503908,-0.045114443,0.97794724,0.20516375,-2.2321322,-1.6785574,-1.1153346,1.357510420913182,3.002611827690091,-2.602468359681348,0,315,5,1,dws_1/sub_5.csv,4
316,-2.530655,-1.2406853,-0.20902812,-0.10717335,0.9456038,0.30626345,-1.8536266,-0.38874683,-1.678724,2.3420276546372323,2.240816207959474,-0.5673076539777948,0,316,5,1,dws_1/sub_5.csv,4
317,-2.9032147,-1.1502433,-0.09968123,-0.1603346,0.9132001,0.3751865,-0.8400231,-1.581372,-1.2674063,-1.6763101030800862,-3.5613753458972988,-1.0469936430749291,0,317,5,1,dws_1/sub_5.csv,4
318,-2.6560752,-1.1110338,-0.005169809,-0.16544914,0.8959265,0.41182214,-0.25186047,-2.0987122,-0.78364706,1.244076141600936,-2.6394734986865998,0.297045338754204,0,318,5,1,dws_1/sub_5.csv,4
319,-2.8559422,-1.0998019,0.055781484,-0.15545635,0.89131594,0.42619598,0.30803594,-1.4776456,-0.536901,2.584343406482117,-5.047356285857863,-0.03007016328099341,0,319,5,1,dws_1/sub_5.csv,4
320,-2.7382936,-1.1248173,0.12703687,-0.15461344,0.9020943,0.40271026,0.86506295,-0.47806332,-0.28515816,0.9864378737198966,-6.594254029020963,0.5209946026837372,0,320,5,1,dws_1/sub_5.csv,4
321,-2.7718017,-1.1581465,0.17570633,-0.1539155,0.91615945,0.37020326,0.6595609,-0.34959,0.026511237,0.12907326557785562,-5.359693600165058,1.6009332528032436,0,321,5,1,dws_1/sub_5.csv,4
322,-2.7431571,-1.1960807,0.18998843,-0.13856949,0.9305781,0.3388764,0.9228821,-0.3837529,0.18281692,-2.3532405355936485,1.5706810427456974,0.4487878793297475,0,322,5,1,dws_1/sub_5.csv,4
323,-2.6889975,-1.240561,0.2786622,-0.14350444,0.94601816,0.29039913,1.01346,-0.065044075,-0.49051124,0.34526442674887264,3.2176829269560976,0.42108071266175023,0,323,5,1,dws_1/sub_5.csv,4
324,-2.6058402,-1.2559675,0.36928463,-0.15860693,0.9508592,0.26645562,0.06444647,-0.5916709,-0.047690768,0.31377060225381076,2.6917448258812917,-2.6597170390969227,0,324,5,1,dws_1/sub_5.csv,4
325,-2.725102,-1.2402087,0.29226583,-0.13075887,0.94584554,0.29668367,-0.7827248,-0.7997489,0.34881878,-1.4903093111617134,9.69602729936263,0.02014498505886937,0,325,5,1,dws_1/sub_5.csv,4
326,-2.7467504,-1.2179246,0.27443808,-0.1330665,0.9383999,0.31884146,0.045162458,0.2934196,-0.37329334,-0.0734262065564511,-3.2019332394797857,0.2740094816448564,0,326,5,1,dws_1/sub_5.csv,4
327,-2.6846917,-1.2332808,0.33744472,-0.14614709,0.9435776,0.29720494,0.525274,-0.20270208,-0.05164804,-0.8644101485515061,-0.12662050983409132,0.11818955323947479,0,327,5,1,dws_1/sub_5.csv,4
328,-2.6796637,-1.2496293,0.34998798,-0.14055632,0.94885916,0.28252584,0.22044979,-0.010516316,0.09902162,-0.5007739551130415,-1.4320413681595927,1.0823688780005645,0,328,5,1,dws_1/sub_5.csv,4
329,-2.6908863,-1.2585032,0.34302765,-0.13389166,0.9516615,0.27649516,-0.004928087,-0.2318804,0.10111671,1.0146037146710885,-4.558162676239307,0.10627722108555249,0,329,5,1,dws_1/sub_5.csv,4
330,-2.7054086,-1.243886,0.3358087,-0.13561799,0.9469977,0.29101568,-0.49362245,0.005625963,-0.2149182,-1.145636011849606,-0.3545592127815123,-0.1355480441714501,0,330,5,1,dws_1/sub_5.csv,4
331,-2.7465873,-1.2048002,0.29562163,-0.13765639,0.9338406,0.330216,-1.2108928,-0.30679822,0.09216883,-0.13751810393321273,-0.5193667957197692,-2.353263139518651,0,331,5,1,dws_1/sub_5.csv,4
332,-2.8216658,-1.1181874,0.24106663,-0.1376904,0.899201,0.41511434,-2.0877671,-0.39026687,-0.62961775,-0.8977678013895173,2.390166241108059,0.5774434622384635,0,332,5,1,dws_1/sub_5.csv,4
333,-2.8003154,-1.0239512,0.26029432,-0.17384908,0.8543076,0.48998868,-1.1316575,0.3889523,-0.57138205,3.9511697281076246,4.0979795788745195,4.288920342309193,0,333,5,1,dws_1/sub_5.csv,4
334,-2.7689667,-1.0197859,0.2693826,-0.19073927,0.8519006,0.48753995,0.775463,0.44992083,0.08395865,-0.3122390476987479,-1.9436338182734514,1.6750302569526767,0,334,5,1,dws_1/sub_5.csv,4
335,-2.7218833,-1.0762573,0.31146818,-0.1933312,0.88027215,0.4333796,1.3335749,-0.069037795,0.02607821,-1.3570152479970798,-1.3446848149437596,3.6561043400725244,0,335,5,1,dws_1/sub_5.csv,4
336,-2.6575153,-1.1370213,0.39382142,-0.19562325,0.9073285,0.3720135,1.5217761,-0.027284086,-0.34035954,-2.221367248357764,-2.8861114076625203,4.080503808421479,0,336,5,1,dws_1/sub_5.csv,4
337,-2.5017161,-1.1877493,0.537013,-0.22303373,0.9275815,0.29966214,1.3019861,0.7324863,-0.317548,0.5997921025468238,0.0796899222216596,1.7748008907145312,0,337,5,1,dws_1/sub_5.csv,4
338,-2.3958826,-1.2305286,0.6435922,-0.2265997,0.94263244,0.24519767,0.99629724,-0.58561593,0.11476696,1.4198480194755652,-2.6338876759789653,-6.167834394729296,0,338,5,1,dws_1/sub_5.csv,4
339,-2.4206705,-1.2448442,0.6706367,-0.21099481,0.9473598,0.24048488,-0.44267392,-0.9230026,0.017467454,1.1127701884800159,3.226017149028368,-1.0804227644138147,0,339,5,1,dws_1/sub_5.csv,4
340,-2.5071774,-1.2145026,0.59792787,-0.20687723,0.9372113,0.28084925,-0.52553654,-0.033156365,-0.0026040003,-0.5934822080998066,0.15521541873736247,0.4074566546285289,0,340,5,1,dws_1/sub_5.csv,4
341,-2.504111,-1.2223879,0.61740726,-0.20306595,0.93987787,0.2743348,0.4798941,-0.69001055,-0.065908685,-3.294380462528883,2.640918439729115,0.6249714742496749,0,341,5,1,dws_1/sub_5.csv,4
342,-2.4994266,-1.2232511,0.6597398,-0.20393708,0.94025034,0.272645,0.013587165,-0.42573997,-0.21987185,-0.42795020773449566,4.192689324783278,1.8398202516384123,0,342,5,1,dws_1/sub_5.csv,4
343,-2.500193,-1.2308415,0.65678936,-0.199658,0.9427277,0.2670794,0.05933331,0.26736343,0.439942,-0.0878583911492807,-0.49879519346712403,-0.15707482924118568,0,343,5,1,dws_1/sub_5.csv,4
344,-2.600521,-1.2171233,0.5409959,-0.17812252,0.9381392,0.29696077,-1.3464311,0.100774705,0.3629125,0.13460253161214866,-0.6486102741076379,-3.325754515988976,0,344,5,1,dws_1/sub_5.csv,4
345,-2.7024794,-1.1467258,0.42322904,-0.1750934,0.91141874,0.37224177,-1.6630197,0.12990206,-0.014244452,2.2566169719332505,-5.528671662708061,-3.9325220724185725,0,345,5,1,dws_1/sub_5.csv,4
346,-2.7535305,-1.073114,0.3730554,-0.18057469,0.8787118,0.44198737,-1.4212655,-0.24896482,-0.3682676,1.2786728328457406,0.06097591435299049,-1.0926403190299105,0,346,5,1,dws_1/sub_5.csv,4
347,-2.7334719,-1.0205578,0.37508637,-0.20736185,0.8523341,0.47978386,-0.4056526,1.0411272,-0.26052693,0.7149547736726595,3.618218309660901,4.501555024077186,0,347,5,1,dws_1/sub_5.csv,4
348,-2.680265,-1.0432985,0.3670382,-0.22437358,0.86419076,0.45069158,0.93054056,0.9508795,0.69000584,-0.7622147324497026,1.0233697044497403,3.1966986686172816,0,348,5,1,dws_1/sub_5.csv,4
349,-2.648174,-1.123063,0.3592593,-0.20454141,0.90129685,0.38139564,1.6207854,0.9962874,0.70019966,-1.8626134543113189,1.01406306533846,5.428717233228445,0,349,5,1,dws_1/sub_5.csv,4
350,-2.524902,-1.19578,0.42348462,-0.2124338,0.93063784,0.29851937,1.3781596,1.096468,0.025085375,-0.11795010586486693,-2.2709707547846327,-1.405821474055156,0,350,5,1,dws_1/sub_5.csv,4
351,-2.3702586,-1.2492894,0.5794874,-0.21960366,0.94864154,0.22680664,1.5940676,-0.46425563,-0.16656493,0.22206171634919905,-7.199075570385473,-3.872847412956128,0,351,5,1,dws_1/sub_5.csv,4
352,-2.2769895,-1.2663063,0.7035354,-0.22862624,0.95406777,0.19429336,-0.2904691,-0.44003412,-0.39511663,3.2885980382033044,-4.515810539047126,-1.6066108373009584,0,352,5,1,dws_1/sub_5.csv,4
353,-2.3952053,-1.2117519,0.5972249,-0.23805381,0.93621767,0.258012,-1.2916224,-0.4150959,0.03906489,0.8757432100540528,4.196734031053926,-3.891436911211028,0,353,5,1,dws_1/sub_5.csv,4
354,-2.498406,-1.1953759,0.49272436,-0.22016463,0.9303355,0.29336885,-0.32141745,0.21973312,0.56761974,-2.426787702703463,5.208632902087361,2.9158243912835866,0,354,5,1,dws_1/sub_5.csv,4
355,-2.5460126,-1.1988548,0.4341913,-0.20355514,0.9316427,0.30076295,-0.09495793,-0.13441698,0.08739694,-5.174808568348204,4.4320603459119035,2.055988048949464,0,355,5,1,dws_1/sub_5.csv,4
356,-2.535462,-1.2014315,0.46238452,-0.20604526,0.9325442,0.29671028,0.17533302,-0.38936713,-0.14897251,-1.5470017978349118,-0.17507935685987266,1.0101472988184292,0,356,5,1,dws_1/sub_5.csv,4
357,-2.6024797,-1.1813258,0.41317034,-0.19435248,0.9251177,0.32578787,-1.2512733,-0.3498894,0.23413584,1.972329408002242,0.6673445664444535,-3.2471207042799897,0,357,5,1,dws_1/sub_5.csv,4
358,-2.7008557,-1.1114408,0.3129065,-0.18964796,0.89636415,0.40088224,-1.6586848,-0.07603639,-0.1172971,1.9998241218120016,-4.258840986045752,-2.7516624755026307,0,358,5,1,dws_1/sub_5.csv,4
359,-2.755262,-1.0398526,0.27577358,-0.19054097,0.86227673,0.46911708,-1.262341,-0.6173418,-0.36918542,0.528902434328223,1.4167874843979815,-0.10870504639352825,0,359,5,1,dws_1/sub_5.csv,4
360,-2.7319312,-1.0028988,0.29969895,-0.21395494,0.8431572,0.49314684,0.19590408,0.762222,-0.4530452,1.291671023051386,1.0562602961589096,4.747321480060626,0,360,5,1,dws_1/sub_5.csv,4
361,-2.6666095,-1.0534202,0.33250546,-0.22686592,0.86900693,0.43974587,1.4714681,0.37301272,0.565496,-2.0314980310614534,-1.8300850330844378,2.3061345632545596,0,361,5,1,dws_1/sub_5.csv,4
362,-2.6358957,-1.1293193,0.3618552,-0.206193,0.9042513,0.3738501,1.4301962,0.09403804,0.26807803,-0.9209099869430227,-2.691854327340942,2.297035871408229,0,362,5,1,dws_1/sub_5.csv,4
363,-2.5659401,-1.1973802,0.43554062,-0.19926366,0.9309756,0.30588013,1.4710214,-0.15001148,0.1895468,-0.4965207544659548,-0.34672123859457493,0.5768660403210091,0,363,5,1,dws_1/sub_5.csv,4
364,-2.4833698,-1.2450162,0.545991,-0.19534048,0.9474893,0.25318453,0.90189743,-0.6200425,-0.29462084,-0.8246991251468362,-1.633732871959198,-1.8074143435393093,0,364,5,1,dws_1/sub_5.csv,4
365,-2.4863482,-1.2570032,0.59697026,-0.188153,0.95111555,0.24437934,0.008196226,-1.3411624,0.26880693,3.5337620660743734,1.534019512850317,-3.7901447095643332,0,365,5,1,dws_1/sub_5.csv,4
366,-2.5967405,-1.2619148,0.52360827,-0.15752982,0.9527188,0.2602454,-0.25821045,0.004910499,0.27986512,0.2454703244498053,6.399995947874041,0.215256760182517,0,366,5,1,dws_1/sub_5.csv,4
367,-2.5696616,-1.2521914,0.5129327,-0.16942422,0.9496525,0.26318866,0.005990534,0.7828364,-0.16135293,-3.4759050336244335,0.4764679657167714,0.5394091948405696,0,367,5,1,dws_1/sub_5.csv,4
368,-2.5256732,-1.2669891,0.5649794,-0.17291525,0.95422226,0.24417561,0.719226,-0.7626244,-0.075969,-2.0333824515171757,0.9783887585179111,-0.9782972079877009,0,368,5,1,dws_1/sub_5.csv,4
369,-2.4739919,-1.2946311,0.6561479,-0.16858724,0.96208054,0.2140786,0.6768985,-0.4020732,-0.02207791,1.3664372757324217,-1.24283236556315,-0.07274380079893375,0,369,5,1,dws_1/sub_5.csv,4
370,-2.4530015,-1.318809,0.68137354,-0.15876211,0.968518,0.19237733,0.22972749,0.04447314,0.31342506,1.358624693630921,-3.4097650372873702,-2.122623442991689,0,370,5,1,dws_1/sub_5.csv,4
371,-2.498393,-1.3190514,0.63075227,-0.14883772,0.9683344,0.19937523,-0.44982606,0.12865773,0.1086101,-0.4144405840408477,-1.238709108991684,-0.5451048139642856,0,371,5,1,dws_1/sub_5.csv,4
372,-2.6199608,-1.2887253,0.51464814,-0.13935223,0.9607356,0.24112497,-1.268167,-0.73466146,0.22647008,-1.154871479518956,-1.1207653178572448,-3.528414915499376,0,372,5,1,dws_1/sub_5.csv,4
373,-2.8033564,-1.2021236,0.3872769,-0.11896072,0.93248135,0.33996454,-2.2659009,-1.1773763,-0.20208097,0.45562715806610626,5.364796050240754,0.21691355246591038,0,373,5,1,dws_1/sub_5.csv,4
374,-2.8546681,-1.1132634,0.34395933,-0.12539347,0.8974389,0.4235995,-1.1717073,0.43969655,-0.044711597,3.003485320950643,3.7724650441351257,3.31388083165448,0,374,5,1,dws_1/sub_5.csv,4
375,-2.8539689,-1.0944165,0.32281077,-0.12990195,0.8884706,0.43971014,0.118554465,0.211101,-0.0010322034,0.3004156168311605,0.5105928935075296,0.6147293262351271,0,375,5,1,dws_1/sub_5.csv,4
376,-2.7895565,-1.1277997,0.37020397,-0.1479012,0.9036093,0.40224123,1.2679634,0.7877988,-0.21352974,2.394608289351659,-2.443956233914737,0.9629901050694406,0,376,5,1,dws_1/sub_5.csv,4
377,-2.6750054,-1.1955405,0.44492298,-0.16481844,0.93033886,0.32736585,1.4515266,0.7763911,0.14736637,-0.0787186711791629,-4.25004371814663,0.41050807839022635,0,377,5,1,dws_1/sub_5.csv,4
378,-2.6036186,-1.2585478,0.50572747,-0.15745892,0.95168924,0.26363012,1.2665178,-0.10825619,0.33502457,-0.5820284357321971,-7.236505361296219,-0.7051966823423629,0,378,5,1,dws_1/sub_5.csv,4
379,-2.5326838,-1.3196028,0.59908086,-0.14189759,0.96863014,0.203937,1.2058651,-0.50284207,-0.022801336,-0.12284850931805454,0.24114956061791784,-1.072663187259636,0,379,5,1,dws_1/sub_5.csv,4
380,-2.4275064,-1.332443,0.7346633,-0.15488178,0.97169197,0.17843394,-0.009682135,-0.5361267,-0.40174624,3.3528042863016907,3.52807394308748,-3.480950570961418,0,380,5,1,dws_1/sub_5.csv,4
381,-2.5318687,-1.3183244,0.6489876,-0.14283985,0.9683461,0.20437567,-0.6306669,-0.2372102,0.5978018,0.5468737718875218,6.856048888588844,-2.097179769620118,0,381,5,1,dws_1/sub_5.csv,4
382,-2.6301289,-1.3117262,0.5336289,-0.12542969,0.9665896,0.22353204,-0.21644345,0.6017137,0.060738824,-2.916609260028157,4.687069617582594,1.589998820522616,0,382,5,1,dws_1/sub_5.csv,4
383,-2.5641928,-1.31419,0.5829417,-0.13844761,0.96728164,0.21252367,0.53197086,-0.049290597,-0.19761288,-1.5820783629595065,-1.2310008202172051,-1.209147009183017,0,383,5,1,dws_1/sub_5.csv,4
384,-2.4877944,-1.3398583,0.68331987,-0.13922429,0.9734508,0.18163466,0.6145928,-0.4908955,-0.07477367,0.3213969898166504,-0.00047876794038709605,-0.2933410221839432,0,384,5,1,dws_1/sub_5.csv,4
385,-2.4660134,-1.3449799,0.7128709,-0.1398883,0.97463274,0.17462522,-0.18307653,0.17563182,0.03559082,1.3270980948982667,-1.9693386761176546,1.1195127803727947,0,385,5,1,dws_1/sub_5.csv,4
386,-2.5282006,-1.3332709,0.6361403,-0.13560832,0.9719092,0.19235435,-0.5676399,0.105748326,0.17414609,-0.7248204518015908,-4.269235011218067,-0.6879820762725999,0,386,5,1,dws_1/sub_5.csv,4
387,-2.663439,-1.2898633,0.5134726,-0.12722392,0.96081877,0.24609861,-1.5977478,-0.5830451,-0.03199506,1.0608106756742541,-3.2708668928375477,-4.281783567443543,0,387,5,1,dws_1/sub_5.csv,4
388,-2.7691998,-1.1900734,0.4194978,-0.13554183,0.92843604,0.34599635,-2.208691,0.03366819,-0.44135556,2.292157816245372,0.03792822682809138,-1.5231310804484202,0,388,5,1,dws_1/sub_5.csv,4
389,-2.764632,-1.0968246,0.3951093,-0.16781886,0.8896038,0.4243706,-1.3942759,0.9190044,-0.42138857,-0.5872324691627783,7.304240298460333,5.36765529688544,0,389,5,1,dws_1/sub_5.csv,4
390,-2.721596,-1.0660787,0.3848343,-0.19702303,0.8756449,0.44158378,0.23767996,0.91190356,0.12364464,-0.9000592588815324,2.592161185798716,4.385520416760915,0,390,5,1,dws_1/sub_5.csv,4
391,-2.6611147,-1.1339016,0.42159313,-0.1959218,0.9056536,0.3749311,2.0189462,0.42664403,0.30599883,-2.7998357074605007,1.46895449010771,5.107873151353775,0,391,5,1,dws_1/sub_5.csv,4
392,-2.55552,-1.2257541,0.5164564,-0.18660676,0.9415219,0.28212973,1.7681116,-0.014836401,0.5090904,1.1275862046474439,-7.1564511558765265,-1.9644140680222295,0,392,5,1,dws_1/sub_5.csv,4
393,-2.5573971,-1.3266048,0.5672105,-0.13352348,0.96988964,0.20135243,1.8999807,-1.590694,0.89692456,-0.3642954336453964,-8.239202349633246,-3.7344810219862095,0,393,5,1,dws_1/sub_5.csv,4
394,-2.4880936,-1.3781288,0.7039245,-0.11694492,0.981751,0.15161127,0.2815302,-0.95738864,-0.5402065,2.8780359876011263,-8.523841617502447,-1.5800628499315759,0,394,5,1,dws_1/sub_5.csv,4
395,-2.518188,-1.342472,0.713257,-0.13122454,0.97395873,0.18381368,-0.82286716,-0.5468552,-0.02354404,3.928776544544986,2.6802999064315527,-3.92442002036762,0,395,5,1,dws_1/sub_5.csv,4
396,-2.6390262,-1.3284328,0.56793255,-0.11630739,0.97083414,0.21031988,-0.476488,1.1057789,0.56956637,-3.981376468680527,8.180624683236331,3.2778847298646943,0,396,5,1,dws_1/sub_5.csv,4
397,-2.7192247,-1.3215057,0.4606653,-0.10029089,0.96900356,0.22481298,-0.16519673,-0.4948231,0.23537698,-7.720375865848181,1.053795338109796,1.8710545301588197,0,397,5,1,dws_1/sub_5.csv,4
398,-2.791845,-1.3196038,0.4638757,-0.0861501,0.968785,0.23350272,-0.2111344,-1.8770833,-0.183241,-0.34968531770860184,0.13469292129938273,0.18844534054968198,0,398,5,1,dws_1/sub_5.csv,4
399,-2.8906612,-1.2629944,0.42746657,-0.07405739,0.9527889,0.29347813,-1.8772241,-0.43835777,-0.07471845,6.155270091910799,2.2432428456846205,-0.9824251425772137,0,399,5,1,dws_1/sub_5.csv,4
400,-2.8675983,-1.1657368,0.41999286,-0.10753238,0.9192679,0.37897614,-1.5682658,0.9878047,-0.8563223,-0.37729443060850565,1.2495931944282028,0.25915689101667294,0,400,5,1,dws_1/sub_5.csv,4
401,-2.804788,-1.0988224,0.488033,-0.14951484,0.8905679,0.42933664,-0.7271616,-0.95302206,-0.800711,-4.639754204690127,1.812244440978306,2.9978271720667826,0,401,5,1,dws_1/sub_5.csv,4
402,-2.8275285,-1.0919958,0.5371122,-0.1426583,0.8875822,0.43803328,0.66009706,-1.2310567,-0.27679002,2.2908318202323352,-4.176560680039734,2.151637138300901,0,402,5,1,dws_1/sub_5.csv,4
403,-2.8467255,-1.1296732,0.57929677,-0.1270295,0.9043329,0.4075517,0.7559676,-0.86218655,-0.043552183,1.9090516585604824,-3.705273194041063,0.9036047051893398,0,403,5,1,dws_1/sub_5.csv,4
404,-2.8294687,-1.1772342,0.6136659,-0.1139996,0.9235041,0.36615697,1.3856063,-0.4127502,0.10406441,2.907860492698691,-8.26223573434999,-0.09116216019668004,0,404,5,1,dws_1/sub_5.csv,4
405,-2.8466635,-1.2493534,0.64687544,-0.09867199,0.9488138,0.29996154,1.1167454,-0.2570588,0.19047737,-1.1532549792800766,0.3739692865785164,2.8492127883445555,0,405,5,1,dws_1/sub_5.csv,4
406,-2.771499,-1.2620257,0.6872539,-0.100572154,0.9527805,0.28710368,-0.34118196,-0.74446464,-0.40379602,-2.229903526374321,-0.09538608175120626,4.979892192468029,0,406,5,1,dws_1/sub_5.csv,4
407,-2.9490397,-1.199764,0.6657341,-0.089665905,0.93174,0.35062903,-1.7972503,-1.5089636,0.045560174,0.2285673912984826,9.979314452466003,-0.9046268111535131,0,407,5,1,dws_1/sub_5.csv,4
408,-2.8973074,-1.1046734,0.61135596,-0.069661856,0.8935438,0.44420642,-1.477057,-0.5994561,-0.18498427,-1.9587079770950342,0.18713815332075912,-1.1868972829076416,0,408,5,1,dws_1/sub_5.csv,4
409,-3.131387,-1.0948358,0.63165885,-0.071424186,0.88871014,0.45239666,0.8228797,-0.21139126,-0.018368855,0.14409370493780396,4.712122191978352,1.1850741649766903,0,409,5,1,dws_1/sub_5.csv,4
410,-2.7506785,-1.1712891,0.6270371,-0.05627928,0.9213346,0.38474423,1.9315487,-0.09996393,0.3488465,-1.2480341176071315,4.698234941262734,1.5918098135196963,0,410,5,1,dws_1/sub_5.csv,4
411,-3.4909363,-1.2864434,0.62274367,-0.037007704,0.9598139,0.27819115,2.4632504,-0.39635858,0.38614565,0.1550174679911585,-4.647366991779091,-0.6501106762767944,0,411,5,1,dws_1/sub_5.csv,4
412,-1.187745,-1.404498,0.5679292,-0.006104231,0.9862333,0.16500598,2.0595202,-1.0151215,0.49892318,0.015046047218821624,-2.3041513546316748,-0.4689249396341823,0,412,5,1,dws_1/sub_5.csv,4
413,3.2372732,-1.4771268,0.25234026,0.029688358,0.9956617,0.088816956,1.137813,-0.98271275,0.7223508,0.9296072800253529,-4.475787803346377,-1.2233127464782765,0,413,5,1,dws_1/sub_5.csv,4
414,1.9461966,-1.4877235,-0.42451292,0.07155381,0.99655867,0.04169959,0.75892794,-0.3769406,0.7393048,0.6598257910789918,-0.44658713460782,-0.2460194981933904,0,414,5,1,dws_1/sub_5.csv,4
415,1.7920847,-1.4707689,-0.7526862,0.09802325,0.9950435,0.018739685,0.13360068,-0.567744,0.3563072,-2.32932344429874,2.029153553684845,-0.12334930932350642,0,415,5,1,dws_1/sub_5.csv,4
416,1.8958678,-1.4622924,-0.654992,0.105667904,0.99410284,0.024945691,-0.5966098,-1.5216227,-0.10700509,-2.9531792026741113,3.204516305349848,-2.262642782115826,0,416,5,1,dws_1/sub_5.csv,4
417,2.0531645,-1.4554915,-0.061534762,0.08631177,0.9934144,0.07527217,-1.7181599,-2.5263276,-0.80259377,1.316472935371705,3.0551987308426223,-3.1513768110242046,0,417,5,1,dws_1/sub_5.csv,4
418,3.429625,-1.4025135,0.6617188,0.045249537,0.98584265,0.16160706,-1.8962537,-2.6149678,-1.3957278,-0.6499503182493823,2.9942609218511946,-3.400308557594795,0,418,5,1,dws_1/sub_5.csv,4
419,0.040250063,-1.3291132,1.0779736,-0.0045930296,0.9709972,0.23890133,-1.3971276,-2.2881975,-1.5399597,2.81752434645844,2.1263074919603593,-1.7434398106135074,0,419,5,1,dws_1/sub_5.csv,4
420,-3.5929132,-1.2674501,1.3490942,-0.044225074,0.9543016,0.29554027,-0.85944265,-3.0474794,-1.5771414,-1.9240482395337077,0.19674640118226203,-1.335712234085167,0,420,5,1,dws_1/sub_5.csv,4
421,-2.6626549,-1.2241902,1.5862048,-0.059841745,0.9405712,0.33418536,-0.405174,-4.599838,-1.6924675,-2.1480809619623,-0.2651532020377708,-1.6159534381537366,0,421,5,1,dws_1/sub_5.csv,4
422,-3.180636,-1.1946311,1.7999146,-0.052039444,0.9300634,0.36367154,-0.31290665,-4.4627104,-1.4235555,1.8603408441573652,-3.7760934699542883,-2.752457544979751,0,422,5,1,dws_1/sub_5.csv,4
423,-2.9312704,-1.1842091,1.9549398,-0.03689134,0.9262505,0.37513036,0.24924052,-3.0425773,-0.97290665,5.034523049298014,-2.966124835529277,-2.2734546291569924,0,423,5,1,dws_1/sub_5.csv,4
424,-3.1356704,-1.2085152,2.0498526,-0.028836697,0.93510795,0.35316843,0.61043906,-1.3076234,-0.3014849,3.8413975763256842,-4.049466587382693,3.1460108181772797,0,424,5,1,dws_1/sub_5.csv,4
425,-3.0448842,-1.2264738,2.0677,-0.018047169,0.9413351,0.33715743,0.15210654,-1.0109186,-0.27557126,-3.510753347419041,-1.6175455919258486,4.878243824440675,0,425,5,1,dws_1/sub_5.csv,4
426,-3.0566673,-1.2210634,2.2076042,-0.039157324,0.9394855,0.3402276,-0.15182804,-1.3576038,-1.2817492,-6.348003699458939,1.4945925287012434,5.554146400671773,0,426,5,1,dws_1/sub_5.csv,4
427,-2.9486504,-1.2006254,2.3496673,-0.06503344,0.9322797,0.35594285,-0.19607034,-2.0574598,-0.9446056,0.792819789792953,8.379966081329156,1.1819128261696676,0,427,5,1,dws_1/sub_5.csv,4
428,-2.9710689,-1.1981318,2.4700367,-0.06479578,0.93140036,0.3582048,0.36794817,-0.83215666,-0.33196616,4.697172905808177,-3.206861532705446,-3.231350019759252,0,428,5,1,dws_1/sub_5.csv,4
429,-2.9493122,-1.23656,2.4498785,-0.062871814,0.9446237,0.3218542,1.1561848,-0.82144606,-0.13145103,-1.009174295081896,1.9742698851471225,-0.8357158858152173,0,429,5,1,dws_1/sub_5.csv,4
430,-2.924469,-1.300222,2.6233253,-0.057373166,0.9636602,0.26100737,1.3773346,-0.5479351,-0.15767887,1.2107371858162914,-1.8045837720663986,1.4823612660950334,0,430,5,1,dws_1/sub_5.csv,4
431,-2.8468258,-1.3643351,2.5483465,-0.05964358,0.9787342,0.19593924,1.3301519,-0.23515174,-0.040457193,-0.5685282977728885,-2.5677893963222274,0.10267464111457922,0,431,5,1,dws_1/sub_5.csv,4
432,-2.7528112,-1.4249371,2.9908237,-0.054965265,0.9894343,0.13457806,1.2311556,-0.75891435,0.017892517,0.1222781690313933,-0.6978745453926326,-0.13398119804440445,0,432,5,1,dws_1/sub_5.csv,4
433,-2.5835743,-1.4794786,2.1737163,-0.04836218,0.9958538,0.07671969,1.1507945,-0.08357149,0.14654005,0.5085491633266224,-1.335309923030969,0.8023275526776933,0,433,5,1,dws_1/sub_5.csv,4
434,-2.1184564,-1.5286891,-2.855632,-0.035517298,0.9991643,0.022707134,1.0058359,0.08729023,0.35329843,0.2802544179067298,-1.5920735630280656,-0.6415897017886557,0,434,5,1,dws_1/sub_5.csv,4
435,-0.7676382,-1.5448887,-1.470158,-0.016557664,0.9996877,-0.020489797,0.69009876,0.10475084,0.30834198,0.6340427465775443,1.1166856840367159,-0.47282197357889083,0,435,5,1,dws_1/sub_5.csv,4
436,-0.19736528,-1.5301445,-0.95200396,-0.009740084,0.99922884,-0.037307903,0.06740738,0.2439962,0.011159413,-2.456792258616368,2.6527717696537385,-0.40649359381740335,0,436,5,1,dws_1/sub_5.csv,4
437,-0.7644247,-1.5413157,-1.541477,-0.01977238,0.99962974,-0.025212571,-0.58604664,-0.5283968,-0.4556379,-2.1439690329067393,4.909915120089114,-2.0079313842594018,0,437,5,1,dws_1/sub_5.csv,4
438,-2.160493,-1.4999261,-2.6986072,-0.055493236,0.9973616,0.04249358,-1.9098659,-1.5246427,-0.80037487,0.7978533031704726,2.270689846707245,-3.150455265728173,0,438,5,1,dws_1/sub_5.csv,4
439,-2.6640973,-1.3910234,1.9383919,-0.085476115,0.98409903,0.15702516,-2.1666455,-1.6494193,-0.89348245,0.5416590881858458,3.2545071546114133,-1.7417028139035717,0,439,5,1,dws_1/sub_5.csv,4
440,-2.6540742,-1.2747554,3.876436,-0.13403486,0.9562874,0.2589622,-1.8525296,-0.66797405,-1.3945415,2.409200871602278,2.2650794388518483,-0.48003887433527836,0,440,5,1,dws_1/sub_5.csv,4
441,-2.664363,-1.1757815,-0.11728504,-0.1786782,0.92317885,0.34080252,-1.2119635,-1.6147711,-1.184664,-0.9741801380362594,-2.3438570761907624,-0.8740127984107299,0,441,5,1,dws_1/sub_5.csv,4
442,-2.6822996,-1.1183169,-3.6066086,-0.19240902,0.89924127,0.39250028,-0.44744748,-1.7172582,-0.90207434,1.3052923750216392,-3.266588463486238,0.05100325580322541,0,442,5,1,dws_1/sub_5.csv,4
443,-2.704108,-1.0983714,-2.7647293,-0.19363917,0.8905861,0.4117368,0.19387668,-1.246444,-0.48019493,2.4186128011963053,-5.186088710943713,-0.44730896272003007,0,443,5,1,dws_1/sub_5.csv,4
444,-2.6918914,-1.1231568,-3.1176498,-0.18769196,0.90143347,0.38997015,0.99551797,-0.3065691,-0.041403875,0.8651934856104045,-5.989367715417755,0.8955308034279238,0,444,5,1,dws_1/sub_5.csv,4
445,-2.6534142,-1.1689863,-2.8164618,-0.18377632,0.9204123,0.34516498,0.7863536,-0.17786145,0.11045132,0.04174680279517763,-6.445990293176643,1.872808535706433,0,445,5,1,dws_1/sub_5.csv,4
446,-2.672781,-1.1968569,-2.97255,-0.1652956,0.9309111,0.32573742,0.5643783,-0.74968183,0.22796562,-2.9728040297670355,3.5607527392938927,0.5991533296612396,0,446,5,1,dws_1/sub_5.csv,4
447,-2.6310325,-1.245059,-2.7839758,-0.15625954,0.94743276,0.27900577,1.4714739,-0.60393214,-0.3084066,1.0353226798690867,3.0359945580825713,-0.021730681796595406,0,447,5,1,dws_1/sub_5.csv,4
448,-2.5285468,-1.2828001,-2.713283,-0.16386998,0.95881885,0.23224847,0.46646875,-0.74691427,-0.14781588,1.7518794125916846,-3.914223502733163,-3.2746591170828094,0,448,5,1,dws_1/sub_5.csv,4
449,-2.6092594,-1.2697496,-2.6905475,-0.15001576,0.9550689,0.25542217,-0.76496094,-1.5384831,-0.102747545,0.12484897118051275,6.744921184640613,-1.1338454693823785,0,449,5,1,dws_1/sub_5.csv,4
450,-2.67875,-1.2215346,-2.7623463,-0.1531253,0.9395929,0.30608377,-0.96948457,0.6183713,-0.11042407,-0.549379864219382,3.5124630764346367,1.789366780689296,0,450,5,1,dws_1/sub_5.csv,4
451,-2.6822457,-1.2066364,-2.7820137,-0.15766601,0.93442416,0.31918707,0.20729636,-0.37718332,0.108144574,-4.202109734642011,-2.281492620132297,-0.5738837610750959,0,451,5,1,dws_1/sub_5.csv,4
452,-2.7007537,-1.2264599,-2.742682,-0.14408715,0.94131696,0.30530882,0.45851734,-1.0221722,-0.27724478,0.5579120071853826,5.717458042191259,4.1101641740765045,0,452,5,1,dws_1/sub_5.csv,4
453,-2.6453576,-1.2267107,-2.6772182,-0.16063803,0.94137603,0.29653957,-0.04311583,0.33879238,-0.3513313,-0.5703520316563944,-1.611050628885551,0.4553247427080463,0,453,5,1,dws_1/sub_5.csv,4
454,-2.675065,-1.1971217,-2.7150755,-0.16393626,0.93099207,0.32595605,-1.2476541,-0.05839196,0.19517246,2.399835539423074,-3.388373142936092,-2.0755588608479223,0,454,5,1,dws_1/sub_5.csv,4
455,-2.747094,-1.119053,-2.8054435,-0.16807379,0.89970505,0.40289932,-1.8681617,0.53608817,-0.35379696,1.8506896459510644,-2.5736993482776853,-1.3593315681041727,0,455,5,1,dws_1/sub_5.csv,4
456,-2.714985,-1.0310874,-2.8012693,-0.21236467,0.8578325,0.4678774,-1.2729069,0.48954242,-0.8412057,-0.9520372971361066,2.963849387639339,1.8642122549873124,0,456,5,1,dws_1/sub_5.csv,4
457,-2.6702268,-0.9990973,-2.7706487,-0.24579109,0.84103906,0.4819256,0.3825807,0.28667843,-0.29219455,-0.513412074826023,-0.0645326177412532,3.5719752873546144,0,457,5,1,dws_1/sub_5.csv,4
458,-2.6304245,-1.0422329,-2.7273934,-0.2466889,0.86347723,0.43982902,1.1244342,-0.07907918,0.22428069,-0.6869786218824829,0.6692008180136483,4.743651400160687,0,458,5,1,dws_1/sub_5.csv,4
459,-2.6049438,-1.1001219,-2.7077165,-0.2317603,0.8913453,0.38966012,1.2679479,0.47127163,0.5333328,-1.5538767858728009,-0.7676454667138392,3.414653753392656,0,459,5,1,dws_1/sub_5.csv,4
460,-2.5167205,-1.1835791,-2.6390839,-0.22093476,0.9258914,0.30624852,1.9071344,0.30954915,0.25001988,0.09436324447428707,-1.2825651884629226,-1.273168586682075,0,460,5,1,dws_1/sub_5.csv,4
461,-2.3804364,-1.2468215,-2.4901204,-0.21945566,0.94802403,0.23042478,1.3222963,-0.30969095,-0.057577185,1.9038338508775716,-6.958672351201996,-3.3400661905430296,0,461,5,1,dws_1/sub_5.csv,4
462,-2.3259408,-1.2768449,-2.3922832,-0.2110169,0.9571123,0.1984588,0.37115008,-1.2937626,-0.016370974,1.2673050591303248,-5.09712815961596,-3.9432643408303965,0,462,5,1,dws_1/sub_5.csv,4
463,-2.4058282,-1.2610313,-2.3920195,-0.20443922,0.9523511,0.22599459,-0.6241541,-1.3545532,-0.29233566,0.9130820627103482,8.565232231927489,0.794249344834949,0,463,5,1,dws_1/sub_5.csv,4
464,-2.4714553,-1.2279981,-2.4559615,-0.20883636,0.9418933,0.2633138,-0.7724644,0.8125625,0.058122016,-2.25250217793751,1.4493902408205899,1.3669171765529364,0,464,5,1,dws_1/sub_5.csv,4
465,-2.4880934,-1.205776,-2.507292,-0.2167709,0.9340186,0.28339243,-0.3443523,0.12515455,-0.11168534,-5.280031694501798,1.8723859346070109,2.0485544381910246,0,465,5,1,dws_1/sub_5.csv,4
466,-2.510521,-1.1902795,-2.5161393,-0.21946344,0.9286149,0.29976404,-0.4967341,-0.33038658,-0.11227962,-0.27358444393798836,1.9510806705747463,-0.3920202840582827,0,466,5,1,dws_1/sub_5.csv,4
467,-2.5895135,-1.1333736,-2.5941122,-0.22167806,0.9056715,0.36065254,-1.8982676,-0.030256003,-0.15348455,3.010374481723097,-0.9529839065836081,-3.462287656830156,0,467,5,1,dws_1/sub_5.csv,4
468,-2.6437528,-1.0402031,-2.6669984,-0.24196598,0.8626439,0.44453096,-1.7573504,0.5019518,-0.5321057,1.1683786578170579,0.2113605153552576,0.43774170728842765,0,468,5,1,dws_1/sub_5.csv,4
469,-2.6164672,-0.9760072,-2.677854,-0.28069767,0.8282606,0.48487645,-0.53990054,0.66168946,-0.3299145,-1.3821158569146763,1.022199423725846,2.058116793075823,0,469,5,1,dws_1/sub_5.csv,4
470,-2.5853152,-1.0038049,-2.6564918,-0.28360122,0.8434131,0.4559893,1.4197081,0.0381037,0.3125505,-0.5203490873473393,-2.0062180927151942,2.5913530904358537,0,470,5,1,dws_1/sub_5.csv,4
471,-2.5160508,-1.0727499,-2.596113,-0.27980942,0.8786805,0.38721004,1.2872864,0.72118384,0.21115845,0.3014434546850306,-3.0148950239107815,3.4276885941724404,0,471,5,1,dws_1/sub_5.csv,4
472,-2.4306579,-1.1420789,-2.5369685,-0.27104604,0.9093107,0.3150093,1.7560682,0.21895581,0.67603374,-1.5057907164481383,-3.60987575216838,0.20113037151657484,0,472,5,1,dws_1/sub_5.csv,4
473,-2.3596585,-1.2251729,-2.4286008,-0.23887119,0.94108796,0.24023686,1.3852248,-1.059591,0.23916414,1.2633955215696655,2.045385922893673,-2.163683028895491,0,473,5,1,dws_1/sub_5.csv,4
474,-2.374776,-1.2452136,-2.3844042,-0.2217758,0.9472959,0.23034759,-0.0622935,-1.0601976,0.20549053,2.2947478227357374,1.4333797711055076,-3.5918549617433073,0,474,5,1,dws_1/sub_5.csv,4
475,-2.4774833,-1.2451633,-2.458112,-0.19718191,0.94757664,0.25192034,-0.4253242,-0.2205824,0.2591202,-0.7110542454798694,5.632222208182786,-1.3431940216299454,0,475,5,1,dws_1/sub_5.csv,4
476,-2.4786205,-1.2243154,-2.471049,-0.20892109,0.94048935,0.2674772,-0.21370262,0.29875857,-0.40557325,-2.3366187914381342,-0.5650336862875699,0.011901501750952679,0,476,5,1,dws_1/sub_5.csv,4
477,-2.4689636,-1.2222168,-2.4505553,-0.2128249,0.93990505,0.26712534,0.16806045,-0.50417215,0.11639763,0.5161553317106076,-0.47754159597265394,-0.3452580751510002,0,477,5,1,dws_1/sub_5.csv,4
478,-2.4838078,-1.227346,-2.4517636,-0.20579281,0.9415696,0.2664227,0.005750718,0.016480595,-0.06537014,0.5749874232309595,-1.3950094307642142,0.45922655494622067,0,478,5,1,dws_1/sub_5.csv,4
479,-2.474748,-1.2237362,-2.446823,-0.21036579,0.9404136,0.26721603,-0.1024111,0.0719209,0.004289724,-0.28330283688469676,-2.3615551198258737,-0.4261812325891565,0,479,5,1,dws_1/sub_5.csv,4
480,-2.488397,-1.2160941,-2.4731276,-0.21105808,0.9377315,0.2757543,-0.38708568,0.34940314,0.020894192,-0.4803028904311104,-0.3695518987451131,-0.8553234189962969,0,480,5,1,dws_1/sub_5.csv,4
481,-2.5474238,-1.1755704,-2.5381215,-0.21540727,0.9229464,0.318986,-1.5401523,-0.3897798,-0.21437466,-0.9302501259732384,3.2673025990504327,-2.0311791133702237,0,481,5,1,dws_1/sub_5.csv,4
482,-2.6418839,-1.0798931,-2.6124578,-0.22600582,0.88186514,0.41369838,-1.9662563,-0.31549907,-0.60841024,0.9827920871739241,5.325904018472321,3.230539556725149,0,482,5,1,dws_1/sub_5.csv,4
483,-2.6458178,-1.0096147,-2.6350596,-0.25312677,0.8466877,0.4680935,-0.74794316,0.6701403,-0.20647767,0.47640664895253854,1.0971065863326968,2.2841552339062443,0,483,5,1,dws_1/sub_5.csv,4
484,-2.6228442,-1.0160238,-2.638275,-0.26111385,0.85000706,0.4573834,0.8286436,0.26539397,0.24431643,-0.15372140091458175,-4.033748022827738,-0.04346069451507071,0,484,5,1,dws_1/sub_5.csv,4
485,-2.5668774,-1.0815306,-2.5843258,-0.25561792,0.88271135,0.39439833,1.6086706,0.2877763,0.18220845,0.7501665628121295,-4.207764967407222,1.7286115378299702,0,485,5,1,dws_1/sub_5.csv,4
486,-2.4782927,-1.1471796,-2.5078073,-0.25286877,0.9116,0.32392833,1.3331457,0.27997398,0.30744448,-0.9351072489098633,-4.8736775188820625,0.4913886597322703,0,486,5,1,dws_1/sub_5.csv,4
487,-2.4317775,-1.211482,-2.443051,-0.2292893,0.93614453,0.26656976,1.3070092,-0.7028221,0.442913,-1.2334087179524489,-3.583452115863652,-0.2822775710210682,0,487,5,1,dws_1/sub_5.csv,4
488,-2.3756404,-1.2603171,-2.3416274,-0.21163362,0.9521825,0.22018608,0.91949844,-0.664844,-0.05089119,2.6131712842121706,6.391955945598994,-1.2541780223048018,0,488,5,1,dws_1/sub_5.csv,4
489,-2.360815,-1.2764683,-2.3149967,-0.20414048,0.95700824,0.20592138,-0.12344236,0.16093695,0.39592895,2.068625750944093,5.5763714004880764,-2.8712382980584708,0,489,5,1,dws_1/sub_5.csv,4
490,-2.4370275,-1.2799152,-2.4096713,-0.18570827,0.95799094,0.21851736,-0.24055131,0.25273603,0.24560979,-2.0480584423909183,1.7594795697275636,-2.1140273399986884,0,490,5,1,dws_1/sub_5.csv,4
491,-2.4130397,-1.2771312,-2.3921483,-0.19265036,0.9572011,0.21586515,0.19974966,0.16414618,-0.22366223,-0.6893759595334401,2.7862902204213924,0.6019000395382376,0,491,5,1,dws_1/sub_5.csv,4
492,-2.3582914,-1.2914473,-2.3484795,-0.19456917,0.96123236,0.19533087,0.50276834,0.23801976,0.19644508,0.13673851945383073,-1.2981933663640095,-1.6957913593431433,0,492,5,1,dws_1/sub_5.csv,4
493,-2.3223395,-1.3106785,-2.314128,-0.18773592,0.9663644,0.17554745,0.2032744,-0.06332627,0.06648899,0.43570706727930075,-2.3589720304684425,0.2184556500338277,0,493,5,1,dws_1/sub_5.csv,4
494,-2.3415465,-1.3130187,-2.3311696,-0.18310973,0.9670006,0.17747046,-0.15967804,-0.06071177,0.14618841,0.41697563361721285,-2.946416773706526,-1.024780250836966,0,494,5,1,dws_1/sub_5.csv,4
495,-2.3956325,-1.3067585,-2.378546,-0.17668347,0.9653064,0.19169892,-0.32493073,-0.2377723,0.0014071986,-1.193914942158059,-1.313010042796781,-0.5127470903577896,0,495,5,1,dws_1/sub_5.csv,4
496,-2.4484942,-1.2932551,-2.4178383,-0.17558019,0.96181566,0.21055388,-0.43580082,-0.443001,-0.0030480847,-1.270956700159609,0.12043338800014511,-2.3891867431384175,0,496,5,1,dws_1/sub_5.csv,4
497,-2.563428,-1.2464135,-2.5016599,-0.17343658,0.94771445,0.26706108,-1.6440656,-0.74703914,-0.37649265,2.4222748709657673,4.311923357620567,-1.848475672047991,0,497,5,1,dws_1/sub_5.csv,4
498,-2.6234143,-1.1529571,-2.5603788,-0.20140187,0.9140994,0.3522628,-1.6294553,0.5281555,-0.6131562,1.704897099117163,2.2366492393717077,1.6610124103250665,0,498,5,1,dws_1/sub_5.csv,4
499,-2.613573,-1.0955747,-2.591801,-0.23044747,0.8891066,0.39524496,-0.74824065,0.698705,-0.12758954,-1.7909986938030025,2.085131814159753,1.4906149836787863,0,499,5,1,dws_1/sub_5.csv,4
500,-2.5927756,-1.0905129,-2.5984812,-0.240594,0.8868864,0.3941965,0.49622032,0.43154246,0.15507397,1.706921857094713,-0.03803602986606998,2.1909682325944644,0,500,5,1,dws_1/sub_5.csv,4
501,-2.5531988,-1.1456577,-2.5729403,-0.2296462,0.9110283,0.3428234,1.3059804,0.31304175,0.5061992,-1.7465724959184026,-0.6579809361944104,3.291664938216578,0,501,5,1,dws_1/sub_5.csv,4
502,-2.4747815,-1.2100261,-2.5137196,-0.21737802,0.9355569,0.2776387,1.2753356,0.49608278,0.3381339,-0.463708627046249,-2.731934032706286,0.9550993805055038,0,502,5,1,dws_1/sub_5.csv,4
503,-2.4002366,-1.2763183,-2.431263,-0.19678712,0.9570205,0.21364757,1.5063447,-0.61825156,0.5282378,1.562795227947969,-3.6590549266776993,-4.074429632118565,0,503,5,1,dws_1/sub_5.csv,4
504,-2.274174,-1.3426106,-2.2645729,-0.17214876,0.97407883,0.14635003,1.2384913,-0.52836597,0.118354075,0.6823582056473737,-10.531690268490594,-1.2494691231346704,0,504,5,1,dws_1/sub_5.csv,4
505,-2.248588,-1.3383683,-2.211186,-0.17862578,0.97302055,0.14463271,-0.793737,-0.6711728,-0.39267957,1.8505184892488484,-0.7320750541898149,1.7332880465397846,0,505,5,1,dws_1/sub_5.csv,4
506,-2.3776116,-1.2941281,-2.3072994,-0.18989718,0.96207905,0.19686964,-0.88947433,-0.48589772,-0.2505772,-1.9568174065833792,7.1135031570297445,-1.181643859698117,0,506,5,1,dws_1/sub_5.csv,4
507,-2.4574919,-1.2716603,-2.3948467,-0.18523225,0.95548916,0.2284638,-0.5565424,0.4182027,0.38748664,-0.9834315752899122,2.802149496686046,1.9095782732898956,0,507,5,1,dws_1/sub_5.csv,4
508,-2.521878,-1.2654439,-2.47874,-0.1755057,0.95385087,0.24451444,-0.36082205,0.06530926,0.061428376,-3.350131191006091,3.830675942179126,0.760524232853974,0,508,5,1,dws_1/sub_5.csv,4
509,-2.5960886,-1.2201158,-2.546549,-0.1770507,0.9390045,0.29380247,-1.7181435,-0.14770094,-0.10854213,1.9213189403748814,-1.181327876566476,-2.1380600932336407,0,509,5,1,dws_1/sub_5.csv,4
510,-2.6799908,-1.1251519,-2.6688497,-0.19298856,0.902464,0.38561344,-2.0779538,1.1649125,-0.18376392,3.4521942358858477,-0.4560187400903954,-0.9949572336220772,0,510,5,1,dws_1/sub_5.csv,4
511,-2.6632938,-1.0537976,-2.708648,-0.22686762,0.86923593,0.43897742,-0.78498995,0.63202846,-0.30183175,-2.457924494827751,-0.41936884674940755,-0.2675461615547058,0,511,5,1,dws_1/sub_5.csv,4
512,-2.6339288,-1.0613085,-2.685185,-0.23709503,0.8729948,0.42604938,1.0459965,-0.030062556,0.012376666,0.35586867704314107,0.5260463501099979,2.7967184432308954,0,512,5,1,dws_1/sub_5.csv,4
513,-2.5756977,-1.1307454,-2.6222723,-0.2287153,0.9047837,0.35952532,1.6158402,0.22654533,0.35082072,-1.1376834624039758,-0.6648994245142781,4.180571079919561,0,513,5,1,dws_1/sub_5.csv,4
514,-2.4867356,-1.2050835,-2.5458717,-0.21733361,0.93381244,0.28362107,1.5260211,0.27740777,0.31247133,-1.4160513663622547,-0.4497101086896366,0.374525645612256,0,514,5,1,dws_1/sub_5.csv,4
515,-2.3834572,-1.2669883,-2.4230173,-0.20593324,0.9542569,0.21708158,1.3608251,-0.7100558,0.08503666,1.1753635345548852,-5.6247793291752215,-4.491031653398133,0,515,5,1,dws_1/sub_5.csv,4
516,-2.3471582,-1.2938521,-2.3195488,-0.19503592,0.9618713,0.19156785,0.15502095,-1.7064285,-0.09482038,2.5905179503381643,-5.158277998630101,-3.198176444165076,0,516,5,1,dws_1/sub_5.csv,4
517,-2.481245,-1.2718089,-2.3812137,-0.18025379,0.9556368,0.23250645,-0.83322424,-0.69796205,0.10613272,2.7041388238909554,13.039760378838329,-0.3963752494113795,0,517,5,1,dws_1/sub_5.csv,4
518,-2.5213482,-1.2562326,-2.4525192,-0.17989811,0.95090973,0.25173515,-0.17942047,1.0495195,0.17186257,-3.3469109115291955,-2.6809981434329293,0.14060739689167218,0,518,5,1,dws_1/sub_5.csv,4
519,-2.5284262,-1.253312,-2.4634612,-0.1795228,0.9500652,0.25519413,-0.08291104,-0.70020854,-0.11470563,-3.716579714381533,5.784053322013547,2.1751273827054027,0,519,5,1,dws_1/sub_5.csv,4
520,-2.532742,-1.2491064,-2.4441836,-0.18085086,0.9486329,0.25936866,0.041837193,0.0033109188,-0.04119939,-0.7806949670616558,-0.818112553276379,1.5288115455065443,0,520,5,1,dws_1/sub_5.csv,4
521,-2.593106,-1.237823,-2.5053377,-0.1702215,0.9451995,0.27877557,-0.9802939,-0.26634115,0.29348537,3.172069611415628,-0.2889691168423338,-3.3157750446024825,0,521,5,1,dws_1/sub_5.csv,4
522,-2.6879463,-1.1689059,-2.6058736,-0.17166421,0.92017466,0.35147998,-1.7529966,0.35480696,-0.35365194,2.1083928293325966,-1.4788046017325702,-1.9072664682863,0,522,5,1,dws_1/sub_5.csv,4
523,-2.6949787,-1.0913864,-2.628148,-0.19898099,0.88739663,0.4160363,-1.1938705,-0.023518205,-0.469157,0.47880187575164107,-1.3304569426280346,-0.65279123466319,0,523,5,1,dws_1/sub_5.csv,4
524,-2.7002213,-1.0556458,-2.6354704,-0.21032047,0.8701565,0.44542027,-0.09513716,0.28678107,-0.024781331,1.475726595244922,1.8255901697515116,4.221813936871993,0,524,5,1,dws_1/sub_5.csv,4
525,-2.6826193,-1.0984966,-2.6344159,-0.20272613,0.89056087,0.40727293,1.3414346,0.26037014,0.66066045,-0.45677430876823094,-0.08202554210524096,2.5130282181314625,0,525,5,1,dws_1/sub_5.csv,4
526,-2.6576726,-1.1781094,-2.632636,-0.1769944,0.92390746,0.33913878,1.3464444,0.6308138,0.61109716,-1.0412406678995134,-1.8751132201958147,4.230003902119979,0,526,5,1,dws_1/sub_5.csv,4
527,-2.5968337,-1.2431533,-2.592414,-0.16789053,0.9467812,0.27453208,1.2938422,0.19427776,0.23270932,-1.215822001175196,-3.1348217021377103,-0.5472722949987832,0,527,5,1,dws_1/sub_5.csv,4
528,-2.4995177,-1.2981514,-2.4832654,-0.16017435,0.9630831,0.21644318,1.0881766,-0.52641,0.0019875318,0.09463855940634433,-7.9334666010999,-3.2595743907667303,0,528,5,1,dws_1/sub_5.csv,4
529,-2.5196192,-1.3134716,-2.4548078,-0.1492594,0.9670621,0.20561671,-0.3295928,-0.89132,0.14944002,4.327876722420565,-5.463037211659379,-2.0380841533822904,0,529,5,1,dws_1/sub_5.csv,4
530,-2.6008077,-1.2881895,-2.5263817,-0.14155474,0.9603556,0.24036208,-0.5615763,-0.108624876,-0.08088898,-0.311594213793458,8.470169920393406,0.5064590846536332,0,530,5,1,dws_1/sub_5.csv,4
531,-2.6525676,-1.2736024,-2.5509112,-0.14103848,0.95613986,0.2562737,-0.17649575,-0.53957623,0.15315953,-3.8231564741686848,0.03111565695777752,0.8915331527841057,0,531,5,1,dws_1/sub_5.csv,4
532,-2.7301176,-1.2816049,-2.6096673,-0.10772684,0.95850366,0.26426882,0.20847903,-1.324465,0.4690566,-1.7254393030799915,0.8322443098620739,2.3774289464274174,0,532,5,1,dws_1/sub_5.csv,4
533,-2.9100425,-1.3151608,-2.6796322,-0.070553795,0.9674875,0.2424525,0.7170579,-0.30061534,0.67261344,-1.9131176639038947,0.3879082457127731,3.7119739000376963,0,533,5,1,dws_1/sub_5.csv,4
534,-2.795692,-1.3681884,-2.807083,-0.029298916,0.9795723,0.19912428,1.0604342,-0.3827443,0.84653324,-3.0290562242887304,0.1879985737243367,0.6871086385347029,0,534,5,1,dws_1/sub_5.csv,4
535,1.5309391,-1.4094557,-2.942684,0.0053281635,0.9870749,0.16068807,0.25430936,-1.1804054,0.080122165,0.4515400284933445,3.0897935505799063,-2.837002198076062,0,535,5,1,dws_1/sub_5.csv,4
536,-2.8270555,-1.3748412,-2.732458,-0.02346377,0.9807995,0.19261676,-1.2053413,-1.0415835,-1.3645058,3.256358771495564,5.727193985112589,-1.9368565869005414,0,536,5,1,dws_1/sub_5.csv,4
537,-2.8791552,-1.2937993,-2.499582,-0.083088614,0.96197295,0.26089892,-1.4037489,-0.34230864,-1.2090632,-1.2757265742250121,3.740971740424329,-0.4606300120479687,0,537,5,1,dws_1/sub_5.csv,4
538,-2.7410543,-1.2111253,-2.3932102,-0.13042055,0.9359237,0.32650098,-1.0828147,-1.2151414,-1.3538197,0.05463987969883598,-0.14017385086397982,-0.028301455341629964,0,538,5,1,dws_1/sub_5.csv,4
539,-2.7429721,-1.1547403,-2.2578964,-0.16135192,0.9147744,0.37074798,-0.35644555,-2.2676601,-1.235919,-0.20084816838661326,-1.5144406368096037,0.34431624622427676,0,539,5,1,dws_1/sub_5.csv,4
540,-2.7702384,-1.1293693,-2.1501043,-0.15185642,0.9040939,0.39909363,0.10716861,-3.4252224,-0.9386511,-0.7518275613493275,-4.360213250048341,-1.082462819761525,0,540,5,1,dws_1/sub_5.csv,4
541,-2.8495815,-1.1348335,-2.0424645,-0.123714,0.90653145,0.40379566,0.59364796,-2.747456,-0.69518375,3.3169470966026786,-3.6766313384744715,-0.2670633353845918,0,541,5,1,dws_1/sub_5.csv,4
542,-2.879078,-1.161739,-1.9703374,-0.101787105,0.91748196,0.38438976,0.68340516,-1.7926321,-0.19999167,1.0830387464926212,-2.787261574405105,2.1706548584123904,0,542,5,1,dws_1/sub_5.csv,4
543,-2.954516,-1.1847026,-1.939755,-0.07358133,0.9264276,0.36927453,0.26950634,-1.7671709,-0.202741,-1.0098929091299862,-0.3810267329672784,2.185867366881713,0,543,5,1,dws_1/sub_5.csv,4
544,-2.9478552,-1.1769626,-1.8708019,-0.06932599,0.92345464,0.37738755,-0.27290243,-1.3967645,-0.7967109,-2.4626560682637475,1.962591540735794,5.217961106057902,0,544,5,1,dws_1/sub_5.csv,4
545,-2.952396,-1.154469,-1.7708006,-0.086437225,0.9146082,0.39495984,-0.14428936,-1.1000997,-0.82952183,-0.10068029765709781,7.287994085150465,-0.01780618095948675,0,545,5,1,dws_1/sub_5.csv,4
546,-2.8859937,-1.1527969,-1.6998491,-0.08831128,0.9139159,0.39623427,0.27358192,-1.27653,-0.23183414,2.0628896932201903,-3.6055199387807013,-2.8819278184164983,0,546,5,1,dws_1/sub_5.csv,4
547,-3.0478563,-1.1806017,-1.7066259,-0.05946315,0.92485815,0.37552536,0.82255864,-0.9534608,0.26933226,-0.29545831532966976,1.7355141123771114,-1.865270623100964,0,547,5,1,dws_1/sub_5.csv,4
548,-2.9008384,-1.238968,-1.687129,-0.04637538,0.94542396,0.32250154,1.3660545,-0.3128477,-0.12186594,0.8848259317904882,0.6833359992669559,-0.2539100004618425,0,548,5,1,dws_1/sub_5.csv,4
549,-3.118029,-1.3053914,-1.6483614,-0.04634171,0.96502316,0.2578742,1.2928505,-0.099356875,0.12728733,0.8941738869988614,-2.5997378777598263,-0.45027698687480383,0,549,5,1,dws_1/sub_5.csv,4
550,-2.7403078,-1.3685803,-1.6616628,-0.029532656,0.9795999,0.19893017,1.2093754,-0.25965115,0.36884007,0.998386837300571,-2.106950887168805,-1.3445296560343418,0,550,5,1,dws_1/sub_5.csv,4
551,-3.534536,-1.4339182,-1.711412,-0.012863457,0.9907103,0.13507995,1.3776215,-0.2369371,0.24319968,0.20673449632360683,-2.0060559590161033,-0.5437766204615087,0,551,5,1,dws_1/sub_5.csv,4
552,1.2188675,-1.5013162,-1.8556123,0.004590556,0.9976096,0.06996834,1.1762002,-0.35653478,0.47017062,-0.24451838436546627,-1.39099132711564,-0.16918017534706364,0,552,5,1,dws_1/sub_5.csv,4
553,2.604797,-1.527117,-2.7276158,0.03637752,0.9990556,0.022945896,0.68954307,-0.6869908,0.6217262,0.5583599379263147,0.4579777832896671,-1.3544869747902364,0,553,5,1,dws_1/sub_5.csv,4
554,1.499773,-1.5113907,-0.6813435,0.058332115,0.99832785,0.007090077,-0.072584234,-0.88281274,0.26192954,-2.122250861897752,2.827532654639811,0.6548286165109706,0,554,5,1,dws_1/sub_5.csv,4
555,1.9878216,-1.50884,-2.8537526,0.05899872,0.9980412,0.021662071,-0.5798248,-1.7470295,-0.2746835,-3.481324932775231,4.658993426451572,-1.8089116771256322,0,555,5,1,dws_1/sub_5.csv,4
556,2.7662535,-1.4901911,-2.0520709,0.036041528,0.9968711,0.07055187,-1.6328583,-2.0989864,-0.6580535,1.2077570037521086,2.1010180474308946,-3.5318442034195385,0,556,5,1,dws_1/sub_5.csv,4
557,2.3717113,-1.396834,-1.4867892,0.010357559,0.9848331,0.17330204,-2.2168682,-2.013269,-0.98534787,1.0711728360350021,2.227512674583903,-2.3958101561712786,0,557,5,1,dws_1/sub_5.csv,4
558,-3.0633078,-1.300117,-1.2278475,-0.03659568,0.9636695,0.26434267,-1.5350739,-1.5536716,-1.5235183,1.332608911392277,1.1148912213692397,-1.2172881702953686,0,558,5,1,dws_1/sub_5.csv,4
559,-2.837933,-1.2260925,-1.0148083,-0.0735765,0.9411188,0.33000794,-0.9778571,-2.7033117,-1.3448915,-2.4672361734586397,-1.483278034748482,-0.6091254774476267,0,559,5,1,dws_1/sub_5.csv,4
560,-2.9914653,-1.1831483,-0.86376435,-0.077495344,0.9258447,0.3697639,-0.30291468,-3.5722027,-1.3260968,-0.4362489082042497,-0.830633863249493,-0.4682653164995609,0,560,5,1,dws_1/sub_5.csv,4
561,-2.9376895,-1.1649818,-0.6988376,-0.06629972,0.91876787,0.38918132,-0.015665025,-3.6862166,-1.2128302,0.8906427884508994,-2.942635053799882,-1.678211043684162,0,561,5,1,dws_1/sub_5.csv,4
562,-3.0376906,-1.1636168,-0.5652715,-0.049217723,0.9182735,0.39284003,0.24514209,-2.9874237,-0.9487828,3.4716285572447982,-2.0787209332173284,-1.5109845249725151,0,562,5,1,dws_1/sub_5.csv,4
563,-3.016204,-1.1764791,-0.45993516,-0.044467643,0.92327344,0.38158086,0.42263865,-1.2902929,-0.6411496,3.4077419511656477,-1.6839224119206793,1.6049919247248756,0,563,5,1,dws_1/sub_5.csv,4
564,-3.008705,-1.1923931,-0.39226317,-0.051810525,0.92928046,0.36570454,0.2607468,-0.6419076,-0.32616284,-1.0439156174616304,-1.9831061523556917,3.123799382030794,0,564,5,1,dws_1/sub_5.csv,4
565,-2.9944587,-1.1915339,-0.3416419,-0.053739697,0.92894334,0.3663093,-0.123689525,-0.96089405,-0.56689775,-3.042789710103416,0.7387352600210715,4.379831205662051,0,565,5,1,dws_1/sub_5.csv,4
566,-2.950316,-1.1693594,-0.22740716,-0.075364284,0.9205298,0.3833207,-0.44485217,-1.4168882,-1.1085621,-3.7843750005431667,-1.0046379139998078,5.5907154647005255,0,566,5,1,dws_1/sub_5.csv,4
567,-2.945775,-1.1370559,-0.13302469,-0.08255886,0.9073836,0.41198704,-0.36089003,-1.6741526,-0.6638625,-0.04383097897934194,9.23306706544046,-0.32009149586506064,0,567,5,1,dws_1/sub_5.csv,4
568,-2.9502916,-1.1317414,-0.06957638,-0.08080595,0.9051811,0.4173118,0.2983636,-0.9960734,-0.4702049,1.889904450286486,-0.31935668949998774,-3.3473188672016057,0,568,5,1,dws_1/sub_5.csv,4
569,-2.9649627,-1.1583223,-0.02185899,-0.07051656,0.9161075,0.39451563,0.8276984,-1.3110065,-0.16206685,-1.1992357859253457,0.09598653905545912,-3.0336233446009953,0,569,5,1,dws_1/sub_5.csv,4
570,-2.9547915,-1.2075758,0.030980885,-0.06581924,0.934792,0.34904844,1.1233029,-0.079367876,-0.312647,2.6145298624988724,1.6870080235626943,0.881227119108221,0,570,5,1,dws_1/sub_5.csv,4
571,-2.8691363,-1.2549369,0.09848976,-0.083717756,0.9505204,0.29913962,0.876242,0.46725065,-0.0668688,0.22222658219205196,-2.5165972257157154,-1.2375378471675487,0,571,5,1,dws_1/sub_5.csv,4
572,-2.8446038,-1.2866654,0.12845373,-0.08189236,0.9599456,0.26795214,0.48606646,-0.49342382,-0.038897768,-0.6228556166962399,-0.9200681678433127,-1.087503218640861,0,572,5,1,dws_1/sub_5.csv,4
573,-2.8281844,-1.2979053,0.17692661,-0.083147526,0.9629744,0.2563282,0.13369904,-0.5994381,-0.26310015,-0.2141945439061907,-0.9988695311187406,-0.014131416753585719,0,573,5,1,dws_1/sub_5.csv,4
574,-2.816421,-1.2893718,0.22093862,-0.08867649,0.96070683,0.26307818,-0.24800368,-0.64422745,-0.3013655,0.9161663987311999,-3.521921627696325,0.4306728858510828,0,574,5,1,dws_1/sub_5.csv,4
575,-2.8128068,-1.2731469,0.2554617,-0.09465025,0.9559688,0.2775126,-0.17737873,-0.5065063,-0.24042732,1.265400978072539,-3.828128183774538,-0.42232753203087414,0,575,5,1,dws_1/sub_5.csv,4
576,-2.818542,-1.2576492,0.2710982,-0.09784478,0.9514585,0.29202417,-0.43602702,-0.3181306,-0.20334578,-0.46876940791951677,-1.6690185301196205,-0.21513002397128875,0,576,5,1,dws_1/sub_5.csv,4
577,-2.8101761,-1.2274307,0.2843055,-0.10940714,0.94150096,0.3183392,-0.5442193,0.04437548,-0.26765049,-1.0531361649725808,-0.19444007495551802,1.01332162596601,0,577,5,1,dws_1/sub_5.csv,4
578,-2.8484917,-1.185076,0.26910508,-0.10875626,0.92670655,0.360004,-1.3596027,-1.0946298,-0.15128133,-1.3463497522565053,1.3161872074065029,-2.2734711636408633,0,578,5,1,dws_1/sub_5.csv,4
579,-2.9033322,-1.0787098,0.26314592,-0.11163393,0.88114035,0.45919037,-2.3248963,-0.18893464,-0.82562536,5.009504521204691,7.742882715156677,4.337556428626327,0,579,5,1,dws_1/sub_5.csv,4
580,-2.8188653,-0.9844059,0.29242867,-0.17523466,0.8331503,0.52471733,-1.1316872,1.7449422,-0.5133822,-3.274265294191668,2.3333354547289322,3.994904602299822,0,580,5,1,dws_1/sub_5.csv,4
581,-2.7853315,-0.9554621,0.28722787,-0.20155224,0.8164446,0.5408858,-0.13892701,-0.2515468,-0.0020795837,-1.479881008915639,-2.503598621798586,0.7929864865139283,0,581,5,1,dws_1/sub_5.csv,4
582,-2.8073726,-0.9811413,0.29771507,-0.18225059,0.8312989,0.5253472,1.0951984,-0.45737034,0.19837433,3.0725644682125015,-3.323290101450603,1.4451945206720325,0,582,5,1,dws_1/sub_5.csv,4
583,-2.7871108,-1.0567317,0.31430978,-0.17082757,0.870654,0.46106553,1.5894238,0.53224254,0.32923743,-0.2044005531704967,-6.030021897633445,1.2596985646284125,0,583,5,1,dws_1/sub_5.csv,4
584,-2.7230074,-1.1275676,0.34962928,-0.17415127,0.9034772,0.39179623,1.3444669,0.57179815,0.24414986,0.234548218483935,-4.080649612807407,0.8454472675171216,0,584,5,1,dws_1/sub_5.csv,4
585,-2.665694,-1.1964322,0.4003597,-0.1676096,0.9306614,0.3250253,1.4431852,-0.09070787,0.06885234,-1.8153343352133835,0.379516638034883,1.0953027270203897,0,585,5,1,dws_1/sub_5.csv,4
586,-2.573995,-1.2354212,0.5158605,-0.17684798,0.94433105,0.2773748,0.60063446,-0.49653387,-0.46128455,1.2799939440321986,4.667143505273587,-1.7693724995833153,0,586,5,1,dws_1/sub_5.csv,4
587,-2.5767875,-1.235747,0.54156333,-0.17596145,0.94438416,0.27767736,-0.21065931,-0.5132303,0.18033636,0.39887812652317567,6.196102692248999,-4.848865943911542,0,587,5,1,dws_1/sub_5.csv,4
588,-2.6337984,-1.2309395,0.48964506,-0.16209818,0.9428048,0.2913272,-0.2244892,0.23900259,0.14582193,-0.2833551965858696,1.68183220095651,0.1355624346602375,0,588,5,1,dws_1/sub_5.csv,4
589,-2.59051,-1.2316142,0.50387937,-0.1740836,0.94304603,0.28331605,0.37213042,0.6707904,-0.20252614,-3.063456061616047,3.002236628763435,-0.3965454747199906,0,589,5,1,dws_1/sub_5.csv,4
590,-2.5115142,-1.2526345,0.57871526,-0.18445763,0.9498055,0.252748,0.67456955,-0.3201695,-0.061785772,-1.6132698121843778,-1.5632465849951858,-2.292245107939336,0,590,5,1,dws_1/sub_5.csv,4
591,-2.5090394,-1.2721668,0.60935026,-0.17379053,0.9557861,0.23719718,0.18425445,-0.45853978,0.16429889,1.4311084024957117,-1.543308511843627,-0.05868343987935608,0,591,5,1,dws_1/sub_5.csv,4
592,-2.5339787,-1.2794354,0.5855387,-0.16411135,0.95782006,0.23580615,-0.014005058,0.26563466,0.21595716,1.9419207906888072,-2.301219602226291,0.04570427853880206,0,592,5,1,dws_1/sub_5.csv,4
593,-2.5539482,-1.2805972,0.54467326,-0.15847902,0.9582724,0.23805755,-0.24278228,0.38535982,0.17298672,-1.7955187204931604,-1.7114266603189436,-0.27368308775549643,0,593,5,1,dws_1/sub_5.csv,4
594,-2.6008952,-1.2690647,0.48556978,-0.15314311,0.9547134,0.25472438,-0.48336336,-0.09539658,0.20380017,-1.8521736572473568,0.4123606612831358,-1.5512361317981787,0,594,5,1,dws_1/sub_5.csv,4
595,-2.72092,-1.2318741,0.3954367,-0.13539967,0.943266,0.30351844,-1.4860713,-1.0464222,-0.010301657,2.141915984715325,1.247528111265654,-2.433919402476029,0,595,5,1,dws_1/sub_5.csv,4
596,-2.7810974,-1.1287323,0.35666102,-0.15134309,0.9037172,0.40004292,-2.0966775,0.31825614,-0.86749446,2.8381534076994637,5.103019737300573,3.8609132581728427,0,596,5,1,dws_1/sub_5.csv,4
597,-2.7138104,-1.0494529,0.38575792,-0.2061402,0.8672662,0.45336354,-0.7064344,0.7826323,-0.6495849,-1.5632396333290224,-0.13062066940226374,1.3947498337341218,0,597,5,1,dws_1/sub_5.csv,4
598,-2.6765213,-1.0296525,0.41109943,-0.23143262,0.85706383,0.46014783,0.023495384,0.120469004,-0.27733168,-0.7248903512420946,-1.7992703441820397,2.673945226698963,0,598,5,1,dws_1/sub_5.csv,4
599,-2.6530657,-1.0433571,0.43204504,-0.23576388,0.8641386,0.44458032,0.6225932,-0.01738289,0.18142578,-0.4248449821254951,1.4930404489008966,2.320999646915718,0,599,5,1,dws_1/sub_5.csv,4
600,-2.641189,-1.094037,0.45299667,-0.22060344,0.88847613,0.40246236,1.2814263,0.0035338402,0.28090626,-1.499005786196893,-2.5938519027505196,2.553770825452226,0,600,5,1,dws_1/sub_5.csv,4
601,-2.5754502,-1.1682525,0.5003225,-0.20970975,0.9200767,0.330698,1.5476179,0.69337636,0.63924396,2.0341346231533186,-1.891414619477706,-0.4445549521345121,0,601,5,1,dws_1/sub_5.csv,4
602,-2.509281,-1.2509892,0.5463653,-0.18601513,0.949285,0.25351623,1.5695862,0.10921988,0.40184793,-2.1685196415142514,-5.831018798617037,-3.685990105822965,0,602,5,1,dws_1/sub_5.csv,4
603,-2.3834658,-1.2982302,0.7102515,-0.18512131,0.96311784,0.19534373,0.9070915,-1.2863152,-0.3803554,2.2216430289751337,-5.895022136588989,-3.0916311552725046,0,603,5,1,dws_1/sub_5.csv,4
604,-2.4243562,-1.2873755,0.74827296,-0.18327887,0.96005064,0.21074018,-0.66155994,-1.2984629,-0.1907824,0.5224364718886212,9.767271798691445,-1.1124162362232706,0,604,5,1,dws_1/sub_5.csv,4
605,-2.5181055,-1.2476693,0.6727243,-0.18591948,0.94831115,0.2576772,-0.91065806,0.04436025,-0.059641544,-1.0948269346577983,1.7290863062683743,0.9886275679661627,0,605,5,1,dws_1/sub_5.csv,4
606,-2.59325,-1.2195398,0.5914392,-0.17879327,0.9388651,0.29358923,-0.58020324,-0.023377508,0.25739425,-1.3192841176768322,1.9320682655573373,1.0616646236253209,0,606,5,1,dws_1/sub_5.csv,4
607,-2.638044,-1.2034076,0.5389865,-0.1738312,0.9333809,0.31455296,-0.5920519,0.16559786,0.037513755,-1.0364652016052707,0.6938597525346201,-0.7692424795737395,0,607,5,1,dws_1/sub_5.csv,4
608,-2.7057202,-1.1466206,0.45722312,-0.17311978,0.91124564,0.3730147,-1.8843032,0.22503775,0.11182598,3.3706726307568964,-2.6648901248538803,-2.4523917752355087,0,608,5,1,dws_1/sub_5.csv,4
609,-2.7511754,-1.0566055,0.37040395,-0.18778065,0.87081015,0.45476276,-1.7652112,1.0011384,-0.20722856,0.23859115124575012,2.4912121992028315,1.3785417040668235,0,609,5,1,dws_1/sub_5.csv,4
610,-2.7181716,-0.9944922,0.3531822,-0.22336683,0.8384632,0.49687922,-0.5992652,0.7453614,-0.21725944,-1.3381044723626765,3.8445594116570727,2.9622492298109853,0,610,5,1,dws_1/sub_5.csv,4
611,-2.6949093,-1.0242991,0.35870785,-0.22489247,0.85429734,0.4685048,1.483723,0.10354164,0.4593569,-0.4696254094563975,-4.262341379567447,0.3258929829412598,0,611,5,1,dws_1/sub_5.csv,4
612,-2.6595557,-1.107545,0.39697295,-0.2068481,0.8946983,0.39600134,1.3877069,0.0806852,0.32692835,0.8129196820477665,-1.4933604791650392,3.512085600518559,0,612,5,1,dws_1/sub_5.csv,4
613,-2.6251016,-1.1697185,0.4262845,-0.1930376,0.92055976,0.33937106,1.4000381,0.12652189,0.4467529,-0.25515626767004274,-4.254282876844736,-0.4557065241185463,0,613,5,1,dws_1/sub_5.csv,4
614,-2.5434637,-1.2472388,0.5180132,-0.17876807,0.94821775,0.26265693,1.5242102,-0.2833888,0.015635602,0.4545545568737656,0.7724845484318659,-0.8335495728154213,0,614,5,1,dws_1/sub_5.csv,4
615,-2.4963045,-1.2773818,0.5968525,-0.17403007,0.957167,0.23113464,0.2588469,-0.7960105,0.17536953,2.5870164575221106,2.315707749565207,-5.453687301645042,0,615,5,1,dws_1/sub_5.csv,4
616,-2.6125193,-1.2905368,0.5137891,-0.1394875,0.96108365,0.23868434,-0.23243964,-0.5299606,0.5781856,-0.647297406896835,6.012331184376844,-2.3163894361550144,0,616,5,1,dws_1/sub_5.csv,4
617,-2.6515656,-1.2714243,0.47692233,-0.13886346,0.9554282,0.26000568,-0.39746472,0.16242754,-0.45775446,-1.8560972015424544,0.031065392379752397,0.7014253911064094,0,617,5,1,dws_1/sub_5.csv,4
618,-2.5931468,-1.2650841,0.54164594,-0.15681323,0.95369405,0.256883,0.43683308,-0.32658938,-0.16830003,-0.8649699576151946,-0.4122992960877595,-1.51778205965743,0,618,5,1,dws_1/sub_5.csv,4
619,-2.5730247,-1.2821817,0.5865204,-0.15326391,0.95860386,0.23973168,0.28272367,-0.46779457,-0.045895714,0.3391218988889705,-0.3651887528226974,-0.5627671270024038,0,619,5,1,dws_1/sub_5.csv,4
620,-2.5893412,-1.2832813,0.589989,-0.1486868,0.9590173,0.24135192,-0.13763854,-0.3074829,0.083247446,0.5211737261225645,-2.5172402648739567,0.6798555739288911,0,620,5,1,dws_1/sub_5.csv,4
621,-2.624977,-1.27747,0.55672866,-0.14287433,0.95721656,0.25135812,-0.2411492,0.06723446,0.08393683,-0.6032170292703232,-1.1551367015624316,-1.69361951101048,0,621,5,1,dws_1/sub_5.csv,4
622,-2.6957421,-1.2476128,0.48893517,-0.13670135,0.94835573,0.28649735,-1.3336682,-0.33651844,0.066421084,1.329101919745519,-0.8043713102037757,-3.2272521822418705,0,622,5,1,dws_1/sub_5.csv,4
623,-2.7674234,-1.1523488,0.42158085,-0.14883383,0.91359645,0.3780441,-2.0892825,0.20665848,-0.70884484,1.5543749217068281,2.7534618740971917,1.2521358417506063,0,623,5,1,dws_1/sub_5.csv,4
624,-2.7243378,-1.0656872,0.43836242,-0.19584513,0.8751783,0.4424886,-1.0414343,0.60362405,-0.62330896,-0.2552018809643568,2.527751683173428,1.8350607801987844,0,624,5,1,dws_1/sub_5.csv,4
625,-2.702343,-1.0390188,0.44397122,-0.21558821,0.86196506,0.45884892,0.07099898,0.17366457,-0.06734473,-0.5078826707728741,-0.38319453050597047,2.739884903348853,0,625,5,1,dws_1/sub_5.csv,4
626,-2.6708403,-1.0749767,0.4674669,-0.21602058,0.87945044,0.42388147,1.1674504,0.3676399,0.23424944,-0.8107849315581491,3.2114501403067224,6.267233666624699,0,626,5,1,dws_1/sub_5.csv,4
627,-2.6077895,-1.1407081,0.5112147,-0.2117355,0.90913445,0.35910794,1.5030831,0.38725036,0.36503896,-1.1569776206090068,-4.25489104195883,-0.42483859625002096,0,627,5,1,dws_1/sub_5.csv,4
628,-2.5565999,-1.2378824,0.5771002,-0.18076952,0.9448816,0.2721172,2.1197555,-0.70348024,0.77015245,-0.5861712164569453,-7.575067216817085,-4.071804142793984,0,628,5,1,dws_1/sub_5.csv,4
629,-2.5310988,-1.3093725,0.66148597,-0.14809212,0.96614736,0.21184784,0.5659671,-1.3942351,-0.031240273,0.926439247691682,-10.509761788575492,-0.8742204160732461,0,629,5,1,dws_1/sub_5.csv,4
630,-2.5935612,-1.2971158,0.6776287,-0.1406538,0.96273744,0.23047207,-0.40609622,-1.2952726,-0.16408993,4.485146031295467,6.272361240964216,-3.045840020315876,0,630,5,1,dws_1/sub_5.csv,4
631,-2.626719,-1.2799577,0.6627142,-0.14115086,0.95799255,0.2495505,-0.23366876,0.43234795,-0.12450206,-2.5899223155259645,4.0046632175651675,1.6340437822819376,0,631,5,1,dws_1/sub_5.csv,4
632,-2.6325502,-1.2715622,0.641656,-0.14381433,0.9555978,0.2572356,-0.1614575,-0.23631236,0.23338962,-3.4340213943562605,2.616953407140282,1.0967422147670944,0,632,5,1,dws_1/sub_5.csv,4
633,-2.706015,-1.2780142,0.6015877,-0.121401295,0.95736754,0.261826,0.07714177,-0.8457982,0.15444839,-2.7296333957855716,-0.18413289475102498,0.6109226503893749,0,633,5,1,dws_1/sub_5.csv,4
634,-2.7772527,-1.2676984,0.5783736,-0.10676073,0.9545732,0.27857247,-0.6967213,-1.1411829,0.0519728,1.834739694128105,0.40806474925265496,-1.9963256497295176,0,634,5,1,dws_1/sub_5.csv,4
